Time (s),Gyroscope X (deg/s),Gyroscope Y (deg/s),Gyroscope Z (deg/s),Accelerometer X (g),Accelerometer Y (g),Accelerometer Z (g),Magnetometer X (uT),Magnetometer Y (uT),Magnetometer Z (uT),Barometer (hPa)
0.000000000,-4.378757,-0.2601407,-0.002004489,0.02310539,0.008920567,1.00004,20.45227,-8.093858,-44.38356,984.7361
0.020248413,-4.501314,-0.5026996,-0.002004489,0.02170347,0.003077954,0.9994255,20.45227,-8.093858,-44.38356,984.7365
0.040602207,0.9525028,-0.8665378,-9.14662,-0.02236199,0.1474027,0.9954475,20.45227,-8.093858,-44.38356,984.7365
0.060851574,1.197618,-2.018692,-29.3867,0.04282138,-0.03541598,0.9909761,20.82704,-8.454688,-44.83141,984.7348
0.081100464,-5.359218,-1.836773,-0.7945378,0.06624299,-0.06748421,0.9768888,20.82704,-8.454688,-44.83141,984.7348
0.101348877,6.345041,-1.048457,0.05895961,0.02742644,0.01382338,1.001079,20.45227,-8.093858,-44.38356,984.7348
0.121598244,2.607032,-1.291016,-3.964671,0.02882259,0.03166224,1.013071,20.45227,-8.093858,-44.38356,984.7348
0.141842365,5.793531,-0.0175819,-0.6116455,0.01637862,0.006842286,1.003434,20.45227,-8.093858,-44.38356,984.739
0.162091732,-0.2117952,-0.07822161,0.302816,0.03472824,0.001398183,0.9924937,20.08281,-8.094622,-44.38395,984.739
0.182340622,0.2171567,0.2856166,1.704991,0.0192207,0.003609798,0.9936919,20.08281,-8.094622,-44.38395,984.7373
0.200057983,-0.3343529,-0.1388613,2.985237,0.03287521,-0.005454965,0.9942648,21.55477,-7.727545,-44.38017,984.7373
0.220306873,0.5235509,-0.3814202,0.4247442,0.01656609,0.03410703,1.000279,21.55477,-7.727545,-44.38017,984.7414
0.240556240,-0.7633048,0.2249769,-0.002004489,0.02895258,0.005110642,0.9998753,21.55477,-7.727545,-44.38017,984.7414
0.260804653,-0.273074,0.4675358,-0.0629686,0.02898103,0.004592324,1.002268,21.18637,-7.732813,-43.55222,984.7397
0.281053543,-1.069699,0.8920138,0.05895961,0.02361191,0.004101167,0.9975045,21.18637,-7.732813,-43.55222,984.7397
0.301305294,-1.621209,0.8920138,0.1199237,0.02949503,0.008394372,1.009098,20.81634,-7.731152,-43.99864,984.7422
0.321551323,-2.233997,1.013293,-0.002004489,0.01922517,0.002644639,0.9931858,20.81634,-7.731152,-43.99864,984.7422
0.341796398,-0.5181894,0.649455,-0.0629686,0.02563373,0.001613121,1.003675,20.81634,-7.731152,-43.99864,984.7387
0.362044811,-1.866324,0.1643372,0.05895961,0.0221735,0.00358317,0.9984704,21.56008,-8.08914,-44.82841,984.7387
0.382293701,1.136339,-0.3814202,6.643083,0.03960946,0.005244761,1.000237,21.56008,-8.08914,-44.82841,984.7394
0.402542114,0.4622721,-0.1388613,7.740437,0.02596595,0.003744766,0.9902482,21.56065,-8.091565,-44.38238,984.7394
0.422791481,-1.00842,-0.3207805,5.911513,0.02115941,0.009866657,1.000087,21.56065,-8.091565,-44.38238,984.7378
0.440508842,-0.3956317,0.1036975,6.643083,0.02565847,0.004456613,1.009042,21.56065,-8.091565,-44.38238,984.7378
0.460757255,-0.6407471,0.04305781,4.08259,0.01833353,0.003965883,1.002375,20.07693,-7.730601,-44.38173,984.7361
0.481006622,-0.8858625,-0.1388613,2.863308,0.02318434,0.002099481,1.001309,20.07693,-7.730601,-44.38173,984.7361
0.501255512,-0.5181894,-0.0175819,2.009811,0.02655488,0.003128874,1.000334,21.93118,-8.095304,-43.55365,984.7384
0.521503925,-0.8858625,-0.3814202,4.326447,0.02805793,-0.003154718,0.9991925,21.93118,-8.095304,-43.55365,984.7384
0.541749000,-2.540391,-0.1388613,11.33732,0.03723143,0.005154321,1.004594,21.93118,-8.095304,-43.55365,984.7367
0.561998367,1.62657,-4.323001,-6.525164,0.02785354,0.1128786,1.044523,20.81634,-7.731152,-43.99864,984.7367
0.582246780,-6.768631,-2.928288,1.095349,-0.03274358,-0.1221005,1.002143,20.81634,-7.731152,-43.99864,984.7406
0.602495670,-6.217122,-14.38919,18.1653,0.08282477,-0.1500965,0.9558101,20.45276,-8.095937,-44.00124,984.7406
0.622744083,19.33616,-34.21838,10.54479,0.07800804,-0.07011224,1.038296,20.45276,-8.095937,-44.00124,984.7389
0.642993450,70.13631,-23.97027,52.91484,0.0956575,-0.1396874,1.238467,20.45276,-8.095937,-44.00124,984.7389
0.660711288,66.03063,5.197433,67.30237,0.1320483,0.1882906,1.424056,21.1724,-6.995418,-45.26818,984.7389
0.680959701,8.4898,22.66167,31.08969,-0.172348,0.3214151,1.778496,21.1724,-6.995418,-45.26818,984.7372
0.701208591,62.3539,141.3942,15.66577,0.3582532,-0.1597095,1.674856,18.62898,-9.55584,-44.01205,984.7372
0.721457958,18.3557,89.97175,29.38269,0.05205456,0.2625825,1.638184,18.62898,-9.55584,-44.01205,984.7395
0.741702080,-54.25974,84.51418,-2.684425,0.01778432,0.01957556,1.853286,18.62898,-9.55584,-44.01205,984.7395
0.761951446,-76.62652,126.962,1.40017,-0.008467143,0.07087103,1.844794,20.88545,-12.03665,-44.40715,984.7379
0.782199860,-74.60431,160.3744,3.77777,-0.05765995,0.1329093,1.382952,20.88545,-12.03665,-44.40715,984.7379
0.802448749,-95.5004,147.9433,-8.597943,-0.1472416,0.1694077,1.222713,23.01106,-10.26791,-45.28622,984.7361
0.822698116,-120.1958,146.7305,-27.43585,-0.1078956,0.05684955,0.9243235,23.01106,-10.26791,-45.28622,984.7361
0.842946529,-127.9169,124.2938,-40.84795,-0.1808977,0.08706531,0.6703553,26.59654,-3.411477,-43.96624,984.7386
0.863195419,-132.0839,107.436,-73.15893,-0.2182302,0.06293216,0.4439446,26.59654,-3.411477,-43.96624,984.7386
0.883444786,-108.5528,86.57593,-74.50014,-0.189861,-0.03541763,0.1267922,26.59654,-3.411477,-43.96624,984.7351
0.901162147,-66.08656,55.71031,-52.24824,-0.2146962,-0.03930612,-0.0395598,30.81265,6.583183,-39.313,984.7351
0.921410561,-29.25797,23.87446,-59.6249,-0.2503209,0.06618597,-0.1105715,30.81265,6.583183,-39.313,984.7359
0.941656113,13.02444,-6.263472,-62.85599,-0.1807493,0.01003571,-0.381874,31.07511,13.42373,-36.33986,984.7359
0.961904526,33.24645,-81.03223,-61.75864,-0.147928,0.007547476,-0.346217,31.07511,13.42373,-36.33986,984.7342
0.982153416,35.39121,-117.8405,-58.52755,-0.09512126,-0.1291863,-0.03505902,31.07511,13.42373,-36.33986,984.7342
1.002402306,31.59192,-132.1515,-59.19815,-0.0471052,-0.2176461,0.08197185,31.02797,16.27972,-37.15085,984.7308
1.022650719,53.83614,-135.3654,-29.99634,0.01150551,-0.2915009,0.207437,31.02797,16.27972,-37.15085,984.7308
1.042900085,84.16917,-124.2077,-0.1239327,0.03711918,-0.2247338,0.218959,25.54926,15.92238,-40.47224,984.7316
1.063148499,111.6834,-136.1537,-0.8555019,0.05330058,0.005296512,0.6174256,25.54926,15.92238,-40.47224,984.7316
1.083397388,102.1239,-133.9101,-13.04832,0.2986588,-0.303127,0.835807,25.54926,15.92238,-40.47224,984.7281
1.103646755,111.2544,-133.6675,11.15443,0.3015116,-0.1422414,1.337586,22.64707,12.3551,-43.87421,984.7281
1.121364594,94.03506,-111.4127,6.765011,0.1669167,-0.09115039,1.739468,22.64707,12.3551,-43.87421,984.7287
1.141608715,94.52529,-50.40918,13.16624,0.15506,-0.1967216,2.056021,19.86592,5.201475,-46.02353,984.7287
1.161858082,94.46401,6.834705,43.70926,0.1600551,-0.2332305,1.886564,19.86592,5.201475,-46.02353,984.7271
1.182106495,56.90009,2.468646,50.72013,0.09655774,-0.08209281,1.685159,19.86592,5.201475,-46.02353,984.7271
1.202355385,8.734916,-5.657075,33.52825,0.02034908,-0.09213349,1.70696,16.71312,-1.660993,-46.06869,984.7292
1.222604752,-2.05016,11.50396,31.69933,-0.038831,-0.03101038,1.65915,16.71312,-1.660993,-46.06869,984.7292
1.242853165,23.93207,36.00241,41.57551,-0.1101102,0.07779279,1.560718,17.90139,-6.631566,-46.48008,984.7333
1.263102055,49.48535,57.22631,36.51549,-0.1476574,0.145276,1.601867,17.90139,-6.631566,-46.48008,984.7333
1.283351421,31.83704,62.5626,25.90774,-0.06528043,0.0504728,1.611003,17.90139,-6.631566,-46.48008,984.7333
1.303599835,-27.78727,44.97709,15.84866,-0.02427235,0.05859731,1.55346,19.72184,-8.809569,-46.9375,984.7333
1.323848724,-81.46754,22.66167,2.558488,-0.1021898,0.1664534,1.518134,19.72184,-8.809569,-46.9375,984.7408
1.344093323,-106.408,24.96598,-20.42498,-0.1803986,0.219959,1.547361,21.21683,-9.896496,-47.32489,984.7408
1.361811161,-99.29968,43.76429,-24.69246,-0.1260016,0.1029596,1.446509,21.21683,-9.896496,-47.32489,984.7375
1.382060051,-74.97198,60.50085,-9.939154,-0.07679287,-0.008836116,1.315526,21.21683,-9.896496,-47.32489,984.7375
1.402308941,-64.00307,69.23297,-1.708999,-0.09352288,0.004152711,1.202459,22.61217,-4.852973,-48.18475,984.7358
1.422557831,-80.48708,69.47552,-18.3522,-0.0608674,0.01241469,0.9842526,22.61217,-4.852973,-48.18475,984.7358
1.442806721,-95.68423,49.46442,-27.55778,-0.07465939,-0.04432232,0.8544445,21.39466,1.993523,-46.86986,984.7398
1.463055611,-94.70377,43.64301,-25.60693,-0.08676545,-0.08697215,0.7625214,21.39466,1.993523,-46.86986,984.7398
1.483304024,-81.89649,42.91533,-17.92545,-0.08625071,-0.08884487,0.6151815,21.39466,1.993523,-46.86986,984.7364
1.503553390,-62.34854,41.09614,-14.75532,-0.1335514,-0.05392223,0.4683731,23.43852,9.138687,-43.44696,984.7364
1.523801803,-39.98176,33.75874,-9.939154,-0.1272901,-0.1063561,0.3629915,23.43852,9.138687,-43.44696,984.7389
1.544046879,-32.81214,24.05638,-18.71798,-0.1248919,-0.08021151,0.3371603,23.34368,15.19218,-40.92504,984.7389
1.564295769,-20.49509,11.98908,-17.62063,-0.09516905,-0.1663934,0.2696312,23.34368,15.19218,-40.92504,984.7355
1.584544182,-14.85744,4.591036,-14.69435,-0.117079,-0.136118,0.2384105,23.34368,15.19218,-40.92504,984.7355
1.602262020,-10.81304,-4.080442,-14.69435,-0.1159369,-0.1222487,0.2204621,23.66773,18.09818,-39.63257,984.7361
1.622511387,4.81307,-14.38919,-11.52422,-0.08561269,-0.1242918,0.1497861,23.66773,18.09818,-39.63257,984.7361
1.642759800,26.13811,-29.42784,-8.536979,-0.09298373,-0.1420636,0.2697477,23.64624,19.48909,-38.79574,984.7345
1.663008690,32.57239,-26.1533,-9.207584,-0.04590144,-0.2040222,0.3672523,23.64624,19.48909,-38.79574,984.7345
1.683258057,36.06528,-40.58554,-5.915523,-0.02785625,-0.176443,0.3581237,23.64624,19.48909,-38.79574,984.7345
1.703506470,35.45249,-63.74992,-7.80541,0.00288875,-0.2200874,0.4870908,21.50665,18.45774,-39.63264,984.7345
1.723755360,45.74734,-69.08621,-1.830927,-0.01370943,-0.1661995,0.7254751,21.50665,18.45774,-39.63264,984.7365
1.744000435,65.41784,-59.62642,7.49658,-0.007382536,-0.1535867,0.8402808,21.16439,16.64623,-41.3645,984.7365
1.764248848,69.82992,-53.38052,7.679472,-0.01357695,-0.1690452,0.9342965,21.16439,16.64623,-41.3645,984.7331
1.784498215,68.54306,-44.52713,2.985237,-0.006017681,-0.06060483,0.9735671,21.16439,16.64623,-41.3645,984.7331
1.804747105,54.14254,-64.23503,-0.3677891,0.006676908,-0.02011504,0.9749387,19.35997,13.80443,-43.86882,984.7314
1.824995518,43.29618,-81.27479,-6.037451,-0.01583435,0.009753455,1.07993,19.35997,13.80443,-43.86882,984.7314
1.842713356,34.90098,-86.85365,-15.1211,0.01849495,-0.05089571,1.211789,20.17813,8.779348,-45.55534,984.7373
1.862962246,43.23491,-73.99802,-15.24303,0.0536826,-0.08213051,1.36172,20.17813,8.779348,-45.55534,984.7373
1.883210659,41.58038,-62.6584,-14.69435,0.04825286,-0.03266737,1.400593,20.17813,8.779348,-45.55534,984.7373
1.903460026,20.19406,-61.26369,-22.37583,0.1263013,-0.08795309,1.501762,18.39828,4.47696,-47.24018,984.7373
1.923708916,28.16031,-48.34743,-10.85361,0.1129953,-0.04723455,1.568418,18.39828,4.47696,-47.24018,984.7414
1.943953514,33.36901,-28.33633,-12.80447,0.1553337,-0.1240694,1.611688,16.31318,0.1628487,-46.88635,984.7414
1.964202404,31.46937,-11.35721,-11.2194,0.1443259,-0.1027318,1.497806,16.31318,0.1628487,-46.88635,984.7414
1.984451771,27.91519,-10.08377,-17.01099,0.1530335,-0.08947198,1.460501,15.59885,-1.299265,-46.06765,984.7414
2.004700184,17.55907,-3.655964,-22.07101,0.1488256,-0.1517804,1.463286,15.59885,-1.299265,-46.06765,984.7473
2.024949074,-4.19492,2.226087,-32.37394,0.2020188,-0.3571603,1.497844,15.59885,-1.299265,-46.06765,984.7473
2.045198441,-10.07769,4.591036,-14.93821,0.2983863,-0.6592415,1.393694,14.86638,-1.667239,-45.62462,984.7473
2.065446854,-28.09367,5.74319,6.704047,0.2748041,-0.6978195,1.419932,14.86638,-1.667239,-45.62462,984.7473
2.083164692,-42.06524,19.14457,18.10434,0.2333295,-0.6956369,1.291471,14.13236,-1.972118,-45.62724,984.7497
2.103413582,-31.89296,34.3045,35.29621,0.1677144,-0.4607583,1.006559,14.13236,-1.972118,-45.62724,984.7497
2.123661995,-21.16916,20.84248,35.54007,0.1404951,-0.2642026,0.8954259,14.13236,-1.972118,-45.62724,984.7479
2.143907070,-11.91605,6.592146,32.97958,0.03820238,-0.1608363,0.9878176,14.09699,0.1558381,-46.44267,984.7479
2.164156437,-17.98266,13.0806,29.44366,0.03267761,-0.208776,0.969326,14.09699,0.1558381,-46.44267,984.7504
2.184405327,-6.891189,18.05305,41.33166,0.06841509,-0.1611021,0.8579853,14.82733,0.5328195,-48.54238,984.7504
2.204653740,-5.052824,13.01995,40.66105,0.09298466,-0.07756686,0.7794593,14.82733,0.5328195,-48.54238,984.7525
2.224903107,3.77133,7.501742,42.42901,0.1293242,-0.01901785,0.6910124,14.82733,0.5328195,-48.54238,984.7525
2.245151520,12.65676,-0.4420599,44.13601,0.09512104,0.1546298,0.6847835,15.91594,1.636181,-50.19124,984.7507
2.265400410,12.5342,-8.992259,35.41814,0.126743,0.2066309,0.7512106,15.91594,1.636181,-50.19124,984.7507
2.285649300,12.22781,-13.11576,28.40727,0.09352108,0.2775725,0.7923982,16.27682,2.012398,-52.29134,984.749
2.305898190,21.84859,-15.54135,32.06511,0.04507655,0.3391214,0.9018694,16.27682,2.012398,-52.29134,984.749
2.323615551,27.17985,-6.74859,29.01691,0.03640901,0.4606371,0.9291475,16.27682,2.012398,-52.29134,984.7473
2.343860626,25.46404,-7.597546,14.87324,0.01116047,0.5385656,1.000264,14.06323,1.655224,-54.39862,984.7473
2.364109993,4.996906,-3.595325,-7.317697,0.02207002,0.4700745,1.00753,14.06323,1.655224,-54.39862,984.7473
2.384358406,-22.57857,-5.717714,-19.38859,0.04612141,0.3849593,0.8563424,15.19515,0.2014357,-54.4063,984.7473
2.404607296,-18.47289,-11.84233,-24.20475,0.0363372,0.3231083,0.7845978,15.19515,0.2014357,-54.4063,984.7532
2.424856663,9.163868,-13.90408,-25.30211,0.03901913,0.3417793,0.879385,15.19515,0.2014357,-54.4063,984.7532
2.445105076,23.80951,-16.45094,-32.80069,-0.01847684,0.3965842,1.047029,13.78533,-0.1679394,-53.96399,984.7515
2.465353966,13.75978,-4.201722,-57.9179,-0.04145857,0.3113645,1.286256,13.78533,-0.1679394,-53.96399,984.7515
2.485602379,19.33616,30.84803,-64.44106,0.05878606,0.05163464,1.323693,13.04266,0.1855451,-52.30587,984.7515
2.505851745,26.93473,59.22742,-63.77045,0.1172875,0.0008150302,1.114264,13.04266,0.1855451,-52.30587,984.7515
2.526100635,8.428521,48.25163,-73.28085,0.1884581,-0.2714679,0.9394497,13.04266,0.1855451,-52.30587,984.7498
2.546345234,-2.356555,30.54483,-57.18634,0.1691067,-0.4025525,0.9098432,13.78583,0.1690588,-48.99173,984.7498
2.564063072,-12.52884,21.75207,-48.71233,0.1110085,-0.4428339,0.921034,13.78583,0.1690588,-48.99173,984.7498
2.584311962,-4.378757,30.96931,-32.73973,0.08167088,-0.5120669,0.872911,15.56307,0.8869358,-46.43668,984.7498
2.604561329,3.158541,34.97153,-27.49681,0.02416884,-0.3940866,0.7562643,15.56307,0.8869358,-46.43668,984.7498
2.624809742,3.342378,19.5084,-26.64332,0.05315425,-0.459123,0.6344139,15.56307,0.8869358,-46.43668,984.7498
2.645058632,0.891224,3.378242,-22.55872,0.1101396,-0.5367038,0.6394707,17.01404,2.642843,-45.21376,984.7498
2.665307999,7.202945,-13.90408,2.314631,0.1146096,-0.520788,0.6172043,17.01404,2.642843,-45.21376,984.7498
2.685556412,6.651435,-28.09377,11.7031,0.1101663,-0.3688221,0.6610973,17.01511,2.638339,-44.38542,984.7498
2.705805302,4.016445,-49.56022,17.98241,0.09971521,-0.2075527,0.6942273,17.01511,2.638339,-44.38542,984.7498
2.726054192,20.50045,-52.28901,27.55377,0.06317205,-0.03383518,0.8945164,17.01511,2.638339,-44.38542,984.7498
2.746298790,27.36369,-48.65063,18.28723,0.0350176,0.1100451,1.080949,17.0254,1.973047,-44.77179,984.7498
2.766548157,18.17186,-36.94716,10.42286,0.07763799,0.01249869,1.181925,17.0254,1.973047,-44.77179,984.7498
2.784265518,18.0493,-25.36498,24.74942,0.1616991,0.03179579,1.130429,15.21174,-0.207968,-46.0614,984.7498
2.804514885,2.17808,-43.92073,22.2499,0.09398203,0.2273909,1.086642,15.21174,-0.207968,-46.0614,984.7481
2.824763298,-15.28639,-55.19971,-1.891892,0.09463587,0.2437631,1.169842,15.21174,-0.207968,-46.0614,984.7481
2.845012188,-15.22511,-50.40918,-4.574312,0.118683,0.1226079,1.130844,16.3662,-3.057168,-46.07757,984.7481
2.865261555,-11.67094,-46.71016,0.1199237,0.1497364,0.05091677,1.213845,16.3662,-3.057168,-46.07757,984.7481
2.885509968,1.504012,-19.24037,-4.757205,0.132619,0.1068448,1.302113,16.01871,-4.507432,-47.29746,984.7481
2.905758858,21.66475,4.166558,-0.4897173,0.1862358,0.05660519,1.188059,16.01871,-4.507432,-47.29746,984.7481
2.926008224,26.56706,7.744301,11.64214,0.266454,-0.0620039,1.051731,14.54193,-4.514992,-46.47069,984.7464
2.946252346,4.506676,-6.62731,1.522098,0.1824561,0.09649503,1.039431,14.54193,-4.514992,-46.47069,984.7464
2.966501713,-18.96312,-7.294347,-17.98641,0.1870796,0.05486958,1.173565,14.54193,-4.514992,-46.47069,984.7464
2.986750603,-23.3752,105.253,-29.44767,-0.239232,-0.1971093,0.06738748,15.30977,-6.274974,-46.0983,984.7464
3.004467964,-8.055487,56.98375,-4.757205,0.1553487,0.0201741,1.014205,15.30977,-6.274974,-46.0983,984.7464
3.024716854,-4.011084,34.24385,-11.15844,0.08686033,-0.04439495,0.9786861,15.30977,-6.274974,-46.0983,984.7464
3.044966221,4.935627,15.80938,-3.111174,0.07358662,-0.03038755,0.9724594,16.0326,-5.24448,-45.64521,984.7464
3.065214634,8.857473,13.56571,-3.903707,0.0778619,0.01102233,1.005238,16.0326,-5.24448,-45.64521,984.7464
3.085463524,3.648772,18.47753,-17.92545,0.08824579,0.06062783,0.9775089,18.24349,-4.875875,-45.64065,984.7464
3.105712414,5.180743,35.94177,-25.60693,0.08252601,0.128229,1.004816,18.24349,-4.875875,-45.64065,984.7505
3.125960827,5.119464,81.60347,-55.17452,0.04979134,0.3600846,1.008725,19.29242,-4.882716,-43.98286,984.7505
3.146206379,35.39121,64.68499,-86.57103,0.03887581,0.02361396,1.042591,19.29242,-4.882716,-43.98286,984.7521
3.166455269,3.832608,5.136794,-61.81961,-0.002570604,-0.02850995,1.011411,19.29242,-4.882716,-43.98286,984.7521
3.186703682,35.82016,11.38268,-16.40135,0.2773713,-0.2195124,0.9214635,20.76969,-4.877234,-44.42732,984.7505
3.206952572,-33.05725,-21.24148,86.68896,0.07225549,0.06853029,1.380766,20.76969,-4.877234,-44.42732,984.7505
3.227201939,-28.70646,11.32204,54.07315,0.142331,-0.2458934,0.1604063,22.22989,-3.782116,-44.41912,984.7505
3.244919777,126.0226,-45.61864,30.48005,-0.6146855,1.806277,7.204785,22.22989,-3.782116,-44.41912,984.7505
3.265168190,54.38765,-10.14441,0.6686007,-0.1576511,-0.1447052,0.6867741,22.22989,-3.782116,-44.41912,984.7564
3.285417080,10.75712,-1.291016,-0.0629686,-0.04345099,-0.1320747,0.6896301,20.36609,-2.698726,-43.52237,984.7564
3.305666447,-5.910728,0.5281755,-0.002004489,0.01796932,-0.107749,0.8536765,20.36609,-2.698726,-43.52237,984.7529
3.325914860,-1.55993,-0.07822161,-0.002004489,0.01948502,-0.02821303,0.9394467,21.12796,-4.150854,-43.97647,984.7529
3.346159935,0.3397144,-0.07822161,0.05895961,0.03085113,-0.01015687,0.9806906,21.12796,-4.150854,-43.97647,984.7512
3.366408825,0.5848297,-0.199501,0.05895961,0.02903764,0.00259703,1.006067,21.12796,-4.150854,-43.97647,984.7512
3.386657238,-0.1505163,0.1036975,-0.0629686,0.03437218,-0.0007009692,1.003515,22.23692,-4.150986,-43.52927,984.7512
3.406906605,-0.02795866,-0.0175819,-0.002004489,0.03050657,-0.006037728,0.9990905,22.23692,-4.150986,-43.52927,984.7512
3.427155495,0.09459902,-0.3207805,0.05895961,0.02804869,-0.002183063,0.9992176,21.49154,-3.786069,-43.97387,984.7537
3.447403908,-0.0892375,0.2856166,-0.1239327,0.02998484,-0.004074818,0.9972215,21.49154,-3.786069,-43.97387,984.7537
3.465121746,-0.0892375,0.2249769,0.05895961,0.02999959,-0.00265632,1.000146,21.49154,-3.786069,-43.97387,984.752
3.485370636,-0.02795866,-0.0175819,0.05895961,0.03486129,-0.0002217451,1.004484,21.12266,-3.789258,-43.52823,984.752
3.505620003,-0.02795866,-0.1388613,-0.002004489,0.02900753,-0.002157285,0.9982445,21.12266,-3.789258,-43.52823,984.7502
3.525868416,-0.02795866,-0.07822161,0.05895961,0.029012,-0.003122442,0.9977384,20.38316,-3.788362,-43.97504,984.7502
3.546113491,0.4622721,-0.0175819,0.3637801,0.06057515,-0.01673752,0.9926936,20.38316,-3.788362,-43.97504,984.7492
3.566362381,-2.60167,-0.199501,-0.3677891,0.03526409,-0.0237884,1.022166,20.38316,-3.788362,-43.97504,984.7492
3.586611748,-0.6407471,-1.594214,0.1808878,0.03932928,-0.02860714,0.9873402,21.49742,-4.150089,-43.97608,984.7458
3.606860161,-0.3956317,-0.4420599,-0.1239327,0.03932025,-0.0118111,1.003173,21.49742,-4.150089,-43.97608,984.7458
3.627109051,0.4009932,-0.07822161,-0.002004489,0.03722516,0.0003675176,0.999177,21.50919,-4.87813,-43.98051,984.7441
3.647358417,0.8299451,-0.4420599,-0.0629686,0.02607977,0.001671496,0.9998204,21.50919,-4.87813,-43.98051,984.7441
3.667606831,-0.2117952,-0.1388613,0.05895961,0.03146094,-0.005046791,0.9986235,21.50919,-4.87813,-43.98051,984.7445
3.687855720,-0.0892375,-0.199501,0.05895961,0.02717135,-0.0008813143,1.00985,21.86688,-4.149325,-43.97569,984.7445
3.705573559,-0.8858625,-0.3814202,0.1199237,0.0281184,-0.008032492,1.000511,21.86688,-4.149325,-43.97569,984.7428
3.725822926,-0.5181894,-0.199501,-0.002004489,0.03000301,-0.00697679,0.9961843,21.50331,-4.51411,-43.9783,984.7428
3.746067047,0.09459902,-0.1388613,-0.002004489,0.02754052,-0.002636297,0.9963239,21.50331,-4.51411,-43.9783,984.7452
3.766316414,-0.2117952,-0.0175819,-0.002004489,0.03348351,-0.005138187,1.007262,21.50331,-4.51411,-43.9783,984.7452
3.786565304,0.03332018,0.1643372,0.05895961,0.02857549,-0.003193812,1.002555,21.13327,-4.512449,-44.42472,984.7452
3.806813717,0.09459902,-0.0175819,-0.002004489,0.02953834,-0.005571182,0.999595,21.13327,-4.512449,-44.42472,984.7452
3.827063084,-0.02795866,0.1643372,-0.2458609,0.02760696,-0.003685925,1.002072,21.12796,-4.150854,-43.97647,984.7442
3.847311974,-0.2117952,-0.0175819,0.05895961,0.02953804,-0.006529842,0.9986078,21.12796,-4.150854,-43.97647,984.7442
3.867560387,-0.1505163,-0.0175819,-0.002004489,0.02813421,-0.003258685,1.00689,21.12796,-4.150854,-43.97647,984.7425
3.887809277,-0.02795866,-0.1388613,0.1199237,0.02613162,-0.0003173007,1.003138,21.50919,-4.87813,-43.98051,984.7425
3.908058643,-0.0892375,0.2249769,-0.0629686,0.03530703,-0.001122031,0.9996424,21.50919,-4.87813,-43.98051,984.745
3.928307056,-0.02795866,0.2249769,-0.0629686,0.02661907,-0.005110707,0.9986778,21.13973,-4.878895,-43.9809,984.745
3.946020603,-0.02795866,-0.07822161,-0.1239327,0.03291425,-0.002630967,1.001075,21.13973,-4.878895,-43.9809,984.7433
3.966269970,-0.02795866,-0.07822161,-0.002004489,0.02997606,-0.00166517,0.9987273,21.13973,-4.878895,-43.9809,984.7433
3.986518860,0.03332018,-0.07822161,-0.1239327,0.0299753,-0.004061823,0.9962593,22.23577,-4.146136,-44.42133,984.7457
4.006767273,0.03332018,0.1036975,0.05895961,0.02898414,-0.0006868048,0.9973199,22.23577,-4.146136,-44.42133,984.7457
4.027016640,0.03332018,-0.199501,-0.1239327,0.03247729,-0.004140328,1.004411,21.12796,-4.150854,-43.97647,984.744
4.047265530,-0.02795866,-0.0175819,-0.002004489,0.02712694,-0.005616136,1.000584,21.12796,-4.150854,-43.97647,984.744
4.067513943,-0.1505163,-0.0175819,0.1199237,0.0324253,-0.002630861,1.0006,20.39492,-4.516402,-43.97947,984.7481
4.087763309,0.2784356,0.1036975,-0.0629686,0.03392569,-0.002197334,1.005888,20.39492,-4.516402,-43.97947,984.7481
4.108012199,-0.1505163,-0.0175819,-0.1239327,0.0328755,-0.004496304,0.995252,20.39492,-4.516402,-43.97947,984.7447
4.128261566,0.2171567,0.1036975,-0.0629686,0.03098764,-0.0007522088,1.004034,21.12208,-3.786833,-43.97426,984.7447
4.148505688,0.03332018,-0.07822161,-0.002004489,0.02810008,-0.00560985,1.001055,21.12208,-3.786833,-43.97426,984.7468
4.166223526,-0.02795866,-0.1388613,0.05895961,0.0285381,-0.0007451791,1.001174,20.7585,-4.151618,-43.97687,984.7468
4.186472893,0.09459902,-0.0175819,-0.002004489,0.02993776,-0.002092519,0.9943849,20.7585,-4.151618,-43.97687,984.7451
4.206721783,0.03332018,0.1643372,0.05895961,0.02948619,-0.004541045,0.99529,20.7585,-4.151618,-43.97687,984.7451
4.226970196,0.03332018,0.04305781,-0.002004489,0.03052965,-0.008466868,0.999028,20.75205,-3.785173,-44.42068,984.7475
4.247219086,0.1558779,-0.0175819,0.05895961,0.02999006,-0.002643324,0.9991834,20.75205,-3.785173,-44.42068,984.7475
4.267468453,-0.02795866,0.1643372,0.05895961,0.03244331,-0.006012161,0.9990688,20.76381,-4.513214,-44.42511,984.7441
4.287716866,0.09459902,0.04305781,0.1808878,0.03000391,-0.004100808,0.9991459,20.76381,-4.513214,-44.42511,984.7441
4.307965756,-0.02795866,0.2856166,0.05895961,0.03003312,-0.002222476,1.004007,20.76381,-4.513214,-44.42511,984.7448
4.328215122,0.09459902,0.1036975,-0.1239327,0.02660968,-0.004618383,0.9982092,21.13327,-4.512449,-44.42472,984.7448
4.348459244,-0.0892375,-0.07822161,-0.002004489,0.03053949,-0.007521204,1.000977,21.13327,-4.512449,-44.42472,984.7431
4.368708610,-0.0892375,0.04305781,0.1199237,0.03101058,-0.003660679,1.003477,20.76438,-4.515638,-43.97908,984.7431
4.388957500,0.03332018,-0.1388613,-0.0629686,0.03282903,-0.0005966853,0.9943898,20.76438,-4.515638,-43.97908,984.7455
4.406675339,-0.02795866,-0.0175819,-0.002004489,0.03147539,-0.004586956,1.00056,20.76438,-4.515638,-43.97908,984.7455
4.426923752,0.03332018,0.04305781,0.05895961,0.03336015,-0.003051923,0.9967274,21.13327,-4.512449,-44.42472,984.7438
4.447173118,-0.0892375,0.04305781,0.1199237,0.02810023,-0.005130519,1.001548,21.13327,-4.512449,-44.42472,984.7438
4.467422008,-0.02795866,-0.1388613,-0.1848968,0.03144232,-0.003582811,0.9981799,20.76438,-4.515638,-43.97908,984.7462
4.487671375,0.2784356,0.2856166,-0.0629686,0.03089379,0.004171051,0.9993474,20.76438,-4.515638,-43.97908,984.7462
4.507919788,0.09459902,-0.07822161,0.05895961,0.02564341,0.002079457,1.005131,20.76438,-4.515638,-43.97908,984.7445
4.528168678,-0.02795866,-0.199501,0.05895961,0.03337922,-0.003077913,0.9986518,21.13384,-4.514874,-43.97869,984.7445
4.548413753,0.03332018,-0.1388613,-0.002004489,0.0332946,0.0008736877,0.9939407,21.13384,-4.514874,-43.97869,984.7428
4.568662166,-0.0892375,-0.0175819,-0.1848968,0.02904045,-0.00364076,1.000131,22.24166,-4.510157,-44.42354,984.7428
4.588911533,0.03332018,-0.0175819,0.05895961,0.03187973,-0.000635461,0.9963251,22.24166,-4.510157,-44.42354,984.7452
4.609160423,-0.02795866,-0.1388613,0.1199237,0.03578675,-0.0001504812,1.000143,22.24166,-4.510157,-44.42354,984.7452
4.629408836,0.2171567,0.2856166,0.05895961,0.02809115,-0.003679533,1.002067,21.87277,-4.513345,-43.97791,984.7436
4.647127151,-0.02795866,0.1036975,-0.002004489,0.03101534,-0.003667177,1.003959,21.87277,-4.513345,-43.97791,984.7436
4.667375564,-0.1505163,-0.1388613,-0.002004489,0.03144277,-0.002144821,0.9996608,21.87219,-4.510921,-44.42393,984.7439
4.687624931,-0.2117952,-0.07822161,-0.0629686,0.03003713,-0.004625623,1.00202,21.87219,-4.510921,-44.42393,984.7439
4.707873821,-0.0892375,-0.0175819,0.1199237,0.02948203,-0.002617227,0.9967833,21.87219,-4.510921,-44.42393,984.7422
4.728122234,0.1558779,-0.0175819,-0.002004489,0.03386832,-0.00259869,0.9996212,21.86688,-4.149325,-43.97569,984.7422
4.748367310,0.1558779,0.04305781,-0.002004489,0.02899814,-0.001664959,0.9977759,21.86688,-4.149325,-43.97569,984.7447
4.768616676,0.09459902,0.2249769,-0.002004489,0.02902585,-0.004579927,0.997701,21.50273,-4.511685,-44.42433,984.7447
4.788865089,-0.02795866,-0.1388613,-0.0629686,0.02949081,-0.005026872,0.9952775,21.50273,-4.511685,-44.42433,984.7429
4.809113979,-0.02795866,-0.0175819,0.05895961,0.03145737,-0.001205653,1.002091,21.50273,-4.511685,-44.42433,984.7429
4.829363346,0.09459902,-0.199501,-0.002004489,0.0285241,0.0002329741,1.000718,21.50919,-4.87813,-43.98051,984.7473
4.849612236,-0.02795866,0.2249769,0.05895961,0.03002298,-0.0041268,1.00107,21.50919,-4.87813,-43.98051,984.7473
4.867329597,0.03332018,-0.1388613,-0.002004489,0.02571237,-0.006166623,1.003956,20.39435,-4.513978,-44.4255,984.7457
4.887578487,-0.02795866,-0.1388613,-0.002004489,0.03055083,-0.001782238,1.007863,20.39435,-4.513978,-44.4255,984.7457
4.907827377,-0.02795866,-0.2601407,0.05895961,0.02846181,-0.0006412137,0.9934765,20.39435,-4.513978,-44.4255,984.744
4.928076744,0.1558779,0.04305781,-0.002004489,0.03393923,-0.004613478,1.004863,21.13434,-4.516953,-43.59638,984.744
4.948321342,-0.02795866,0.04305781,0.05895961,0.02999884,-0.005052971,0.9976776,21.13434,-4.516953,-43.59638,984.7422
4.968570232,0.03332018,-0.2601407,-0.002004489,0.0333755,0.0002838951,1.001626,21.50919,-4.87813,-43.98051,984.7422
4.988819122,-0.0892375,0.04305781,0.05895961,0.03048378,-0.002649928,1.00014,21.50919,-4.87813,-43.98051,984.7429
5.009067535,-0.02795866,-0.0175819,-0.1848968,0.03000035,-0.0002596686,1.002614,21.50919,-4.87813,-43.98051,984.7429
5.029316902,0.03332018,-0.199501,0.05895961,0.02952017,-0.00266921,1.000632,21.87277,-4.513345,-43.97791,984.7429
5.049565792,-0.0892375,0.1036975,-0.1239327,0.02899292,-0.00309645,0.995814,21.87277,-4.513345,-43.97791,984.7429
5.069815159,0.03332018,0.04305781,-0.1239327,0.03238209,-0.00353104,0.9952824,20.77558,-5.241255,-44.42954,984.7454
5.090063572,-0.02795866,0.04305781,0.05895961,0.03292349,-0.003602623,1.00105,20.77558,-5.241255,-44.42954,984.7454
5.110312462,-0.0892375,-0.07822161,-0.0629686,0.03190402,0.0007700408,1.000211,20.02489,-4.514742,-44.42589,984.742
5.128030300,0.03332018,-0.0175819,-0.002004489,0.0319256,-0.006452398,0.9952129,20.02489,-4.514742,-44.42589,984.742
5.148275375,0.09459902,-0.07822161,0.05895961,0.02999006,-0.002643324,0.9991834,20.02489,-4.514742,-44.42589,984.7461
5.168523788,0.03332018,-0.0175819,-0.002004489,0.03152247,-0.006569254,1.003397,21.50919,-4.87813,-43.98051,984.7461
5.188773155,-0.2117952,0.04305781,0.1199237,0.03286196,-0.002080162,0.9962768,21.50919,-4.87813,-43.98051,984.7444
5.209022045,0.03332018,0.04305781,-0.002004489,0.03188465,-0.0001626275,0.9972998,21.50968,-4.880209,-43.5982,984.7444
5.229271412,0.03332018,0.1036975,-0.002004489,0.02898831,-0.002610622,0.9958265,21.50968,-4.880209,-43.5982,984.7465
5.249519825,0.03332018,-0.07822161,0.05895961,0.0275782,-0.004126268,0.9986919,21.50968,-4.880209,-43.5982,984.7465
5.269768715,-0.0892375,0.04305781,-0.1239327,0.03247192,-0.006051148,1.001955,21.50273,-4.511685,-44.42433,984.7448
5.290017605,-0.02795866,-0.07822161,-0.0629686,0.02859918,-0.003705632,1.004467,21.50273,-4.511685,-44.42433,984.7448
5.310266018,-0.2117952,-0.07822161,-0.0629686,0.03094488,-0.0002143979,1.000197,22.61757,-4.875838,-43.97934,984.7489
5.330515385,-0.02795866,0.4068961,0.05895961,0.02954788,-0.005584178,1.000557,22.61757,-4.875838,-43.97934,984.7489
5.350760460,-0.02795866,0.04305781,0.1199237,0.0333472,0.001281542,0.9997265,22.61757,-4.875838,-43.97934,984.7514
5.368478298,-0.02795866,0.1036975,0.1808878,0.03099151,-0.003634687,1.001553,21.13915,-4.87647,-44.42693,984.7514
5.388727188,-0.273074,0.2249769,-0.0629686,0.03484116,-0.003551064,0.9991041,21.13915,-4.87647,-44.42693,984.7514
5.408975601,0.03332018,-0.1388613,-0.002004489,0.03193188,-0.001665597,1.00063,21.87277,-4.513345,-43.97791,984.7479
5.429224968,-0.02795866,-0.199501,0.1199237,0.03003252,-0.004139795,1.002033,21.87277,-4.513345,-43.97791,984.7479
5.449473858,-0.1505163,0.1036975,0.05895961,0.03146691,-0.00121865,1.003054,21.87277,-4.513345,-43.97791,984.7504
5.469722271,-0.0892375,-0.07822161,-0.002004489,0.0310289,-0.00608332,1.002934,20.75793,-4.149193,-44.4229,984.7504
5.489971638,0.03332018,0.04305781,-0.002004489,0.02849594,0.001709953,0.9993121,20.75793,-4.149193,-44.4229,984.7487
5.510220528,0.09459902,-0.1388613,-0.002004489,0.02998514,-0.003116157,0.9982086,21.88453,-5.241386,-43.98233,984.7487
5.530469894,-0.02795866,0.04305781,0.1199237,0.03097274,-0.002650036,1.000616,21.88453,-5.241386,-43.98233,984.7511
5.550714016,0.1558779,-0.07822161,-0.1848968,0.02951616,-0.0002660602,1.002619,21.88453,-5.241386,-43.98233,984.7511
5.570963383,-0.1505163,0.1643372,-0.002004489,0.03338996,0.0007437309,1.003563,21.50331,-4.51411,-43.9783,984.7493
5.591212273,0.2171567,-0.0175819,0.1199237,0.02950512,-0.005046367,0.9967209,21.50331,-4.51411,-43.9783,984.7493
5.608930111,-0.02795866,0.04305781,-0.002004489,0.02904552,-0.002688596,1.0016,21.13327,-4.512449,-44.42472,984.7518
5.629178524,-0.02795866,0.04305781,-0.1848968,0.02807193,-0.004132873,0.9996487,21.13327,-4.512449,-44.42472,984.7518
5.649427414,-0.1505163,0.1643372,0.05895961,0.02608439,0.001185668,0.9998079,21.13327,-4.512449,-44.42472,984.7467
5.669676781,0.09459902,0.1643372,-0.002004489,0.03044072,-0.003070777,0.9953166,21.14022,-4.880974,-43.59859,984.7467
5.689925671,-0.02795866,-0.0175819,-0.0629686,0.02853674,-0.00505915,0.9967317,21.14022,-4.880974,-43.59859,984.7491
5.710174084,-0.0892375,-0.2601407,0.05895961,0.03389246,-0.001672519,1.003014,21.13327,-4.512449,-44.42472,984.7491
5.730423450,-0.02795866,0.1036975,-0.0629686,0.03241993,-0.004541684,0.9981441,21.13327,-4.512449,-44.42472,984.7512
5.750668526,0.09459902,-0.0175819,-0.002004489,0.03336582,-0.0001824396,1.00017,21.13327,-4.512449,-44.42472,984.7512
5.770917416,-0.0892375,-0.07822161,-0.002004489,0.03189418,-0.0001756232,0.9982619,21.49792,-4.152168,-43.59377,984.7478
5.791165829,0.03332018,0.1036975,0.1808878,0.03485115,-0.00212607,1.001547,21.49792,-4.152168,-43.59377,984.7478
5.811415195,0.09459902,0.04305781,-0.002004489,0.02912477,-0.008551022,1.003855,22.24166,-4.510157,-44.42354,984.7502
5.831664085,-0.1505163,-0.0175819,-0.0629686,0.03096365,-0.00119905,1.001134,22.24166,-4.510157,-44.42354,984.7502
5.849381924,0.09459902,-0.1388613,0.1199237,0.03239222,-0.001626716,0.998219,22.24166,-4.510157,-44.42354,984.7502
5.869630337,-0.02795866,-0.0175819,-0.0629686,0.02854673,-0.003634155,0.9991747,21.87277,-4.513345,-43.97791,984.7502
5.889879703,0.03332018,-0.07822161,0.05895961,0.03338473,-0.0006877603,1.001601,21.87277,-4.513345,-43.97791,984.7526
5.910128593,0.03332018,0.04305781,0.2418519,0.02950913,-0.007449516,0.9947339,21.13384,-4.514874,-43.97869,984.7526
5.930377483,0.03332018,-0.0175819,-0.0629686,0.0319642,-0.005066392,1.000543,21.13384,-4.514874,-43.97869,984.7509
5.950622082,-0.02795866,-0.07822161,-0.002004489,0.03432927,-0.0006424878,0.9991845,21.13384,-4.514874,-43.97869,984.7509
5.970870972,-0.1505163,0.1643372,-0.0629686,0.02811424,-0.006108673,1.002004,21.86631,-4.1469,-44.42172,984.7534
5.991120338,0.03332018,-0.1388613,0.2418519,0.02799685,-0.0001942655,0.9958998,21.86631,-4.1469,-44.42172,984.7534
6.011369228,0.1558779,-0.07822161,-0.1239327,0.03386356,-0.002592191,0.99914,21.85406,-3.416781,-44.7996,984.75
6.031617641,0.09459902,-0.0175819,-0.0629686,0.02753514,-0.004547119,0.9938684,21.85406,-3.416781,-44.7996,984.75
6.051867008,0.03332018,0.04305781,-0.1239327,0.02947249,-0.00260423,0.9958211,21.50331,-4.51411,-43.9783,984.7506
6.072115898,-0.02795866,-0.0175819,0.1199237,0.03333319,0.002259698,0.9992703,21.50331,-4.51411,-43.9783,984.7506
6.089833736,-0.02795866,-0.07822161,0.1199237,0.03441374,-0.005073421,1.003402,21.50331,-4.51411,-43.9783,984.7565
6.110083103,-0.02795866,-0.07822161,-0.002004489,0.02460724,-0.001197669,0.9949506,20.76438,-4.515638,-43.97908,984.7565
6.130331516,-1.927603,-0.199501,-0.3677891,0.053922,-0.01220264,1.010214,20.76438,-4.515638,-43.97908,984.7531
6.150576592,-0.7020259,0.3462563,-0.1239327,0.02997811,-0.01029961,0.9903236,21.49742,-4.150089,-43.97608,984.7531
6.170825481,-0.3956317,-0.3814202,-0.002004489,0.02696875,0.007067375,0.9970604,21.49742,-4.150089,-43.97608,984.7551
6.191073895,-0.0892375,-0.3207805,0.2418519,0.03095562,0.003607249,1.005108,21.49742,-4.150089,-43.97608,984.7551
6.211323261,-0.273074,-0.0175819,0.1808878,0.02708002,-0.003154507,0.9982412,21.13327,-4.512449,-44.42472,984.7518
6.231572151,-0.3343529,-0.1388613,0.1808878,0.03385984,0.000769617,1.002114,21.13327,-4.512449,-44.42472,984.7518
6.251821041,-0.2117952,-0.07822161,0.1808878,0.02897953,-0.0002009766,0.9973323,21.85512,-3.421284,-43.97126,984.7559
6.272069931,-0.1505163,0.1036975,0.05895961,0.02847627,-0.000181376,0.9954132,21.85512,-3.421284,-43.97126,984.7559
6.292318821,0.03332018,0.1036975,-0.002004489,0.03192665,-0.003097088,0.9986681,21.85512,-3.421284,-43.97126,984.7542
6.312567711,0.03332018,-0.0175819,-0.0629686,0.03338413,-0.002605082,0.9996266,20.39541,-4.518481,-43.59716,984.7542
6.330285549,-0.0892375,-0.07822161,-0.1239327,0.03232146,0.0008674022,0.9934705,20.39541,-4.518481,-43.59716,984.7525
6.350530624,0.03332018,-0.199501,0.1199237,0.03146601,-0.00409463,1.000092,22.24272,-4.51466,-43.5952,984.7525
6.370779037,0.03332018,-0.07822161,-0.0629686,0.03287611,-0.002578984,0.9972265,22.24272,-4.51466,-43.5952,984.7549
6.391028404,-0.1505163,0.1036975,-0.002004489,0.03049286,-0.004100915,0.9996216,22.24272,-4.51466,-43.5952,984.7549
6.411277294,0.03332018,-0.1388613,-0.1239327,0.02900337,-0.0002334658,0.9997379,20.75262,-3.787598,-43.97465,984.7549
6.431526661,-0.1505163,-0.0175819,-0.1848968,0.03384449,-0.002566201,0.9972156,20.75262,-3.787598,-43.97465,984.7549
6.451775074,0.03332018,-0.199501,0.1199237,0.02810575,-0.002740367,1.004497,20.02489,-4.514742,-44.42589,984.7573
6.472023964,-0.02795866,-0.1388613,0.05895961,0.03145276,-0.0007198248,1.002104,20.02489,-4.514742,-44.42589,984.7573
6.492273331,-0.02795866,0.1036975,0.05895961,0.03094398,-0.003090379,0.9972357,20.02489,-4.514742,-44.42589,984.7614
6.512522220,-0.0892375,-0.07822161,-0.002004489,0.0329664,-0.003661103,1.00538,20.76488,-4.517717,-43.59677,984.7614
6.532770634,-0.0892375,-0.199501,-0.1239327,0.03144709,-0.003589308,0.998661,20.76488,-4.517717,-43.59677,984.7598
6.553015709,0.09459902,-0.07822161,-0.002004489,0.02758714,-0.006056585,0.9976798,20.7585,-4.151618,-43.97687,984.7598
6.570733547,-0.02795866,0.04305781,-0.0629686,0.02896076,0.0007836735,0.9963951,20.7585,-4.151618,-43.97687,984.7621
6.590982437,-0.02795866,0.2856166,-0.002004489,0.0310046,-0.00748882,0.9990476,20.7585,-4.151618,-43.97687,984.7621
6.611231804,0.03332018,0.2249769,-0.0629686,0.02999959,-0.00265632,1.000146,21.86631,-4.1469,-44.42172,984.7587
6.631480217,0.3397144,-0.0175819,-0.1239327,0.03481241,-0.003991407,0.9957239,21.86631,-4.1469,-44.42172,984.7587
6.651729107,0.5235509,0.04305781,-0.2458609,0.02710862,-0.003193494,1.001128,22.24166,-4.510157,-44.42354,984.7554
6.671978474,0.1558779,0.04305781,-0.002004489,0.03291992,0.0002385154,1.004518,22.24166,-4.510157,-44.42354,984.7554
6.692227364,-0.02795866,0.1036975,0.05895961,0.03001299,-0.005551794,0.9986273,22.24166,-4.510157,-44.42354,984.7557
6.712475777,0.09459902,0.2856166,-0.2458609,0.03146139,-0.003608802,1.000104,21.12151,-3.784409,-44.42029,984.7557
6.732725143,0.09459902,0.4675358,-0.1239327,0.02803946,-0.001211407,0.9992425,21.12151,-3.784409,-44.42029,984.7557
6.752970219,0.5235509,0.04305781,-0.1239327,0.02753264,0.002649331,1.000791,22.24223,-4.512581,-43.97751,984.7557
6.773218632,-0.02795866,-0.07822161,0.05895961,0.03148568,-0.002203302,1.003991,22.24223,-4.512581,-43.97751,984.7564
6.793467522,-0.0892375,0.04305781,-0.0629686,0.02905953,-0.00366675,1.002056,22.24223,-4.512581,-43.97751,984.7564
6.811185360,-0.1505163,-0.2601407,-0.002004489,0.03337952,-0.002119254,0.9996391,21.86631,-4.1469,-44.42172,984.7531
6.831434727,0.1558779,-0.07822161,0.05895961,0.02943942,-0.001600087,0.9934406,21.86631,-4.1469,-44.42172,984.7531
6.851683617,0.03332018,0.1036975,-0.0629686,0.02812959,-0.002772857,1.006903,20.76438,-4.515638,-43.97908,984.7537
6.871932507,0.2784356,0.04305781,-0.002004489,0.02951169,0.0006990964,1.003125,20.76438,-4.515638,-43.97908,984.7537
6.892180920,-0.02795866,-0.1388613,0.1199237,0.03044117,-0.001632788,0.9967974,20.76438,-4.515638,-43.97908,984.7504
6.912430286,0.03332018,0.1036975,0.05895961,0.02852705,-0.005525484,0.9952758,21.49742,-4.150089,-43.97608,984.7504
6.932679176,-0.02795866,-0.1388613,0.1199237,0.0299473,-0.002105514,0.995347,21.49742,-4.150089,-43.97608,984.7511
6.952924252,-0.3343529,0.1643372,-0.0629686,0.02756897,-0.003154612,0.998717,21.50919,-4.87813,-43.98051,984.7511
6.973172665,0.4009932,0.2249769,0.1199237,0.03145843,0.002149659,1.005546,21.50919,-4.87813,-43.98051,984.7493
6.993422031,0.03332018,-0.1388613,0.1808878,0.03293869,-0.0007461347,1.005455,21.50919,-4.87813,-43.98051,984.7493
7.013670921,-0.3956317,-0.3207805,0.302816,0.02855119,-0.004599313,0.9986686,20.38316,-3.788362,-43.97504,984.7476
7.033920288,-0.5794683,-0.0175819,-0.2458609,0.02845017,-0.007338841,0.9856038,20.38316,-3.788362,-43.97504,984.7476
7.051638126,-0.273074,-0.07822161,0.1808878,0.02997606,-0.00166517,0.9987273,21.8668,-4.148979,-44.03941,984.7501
7.071886539,0.1558779,-0.199501,-0.002004489,0.03387831,-0.001173695,1.002064,21.8668,-4.148979,-44.03941,984.7501
7.092135429,-0.02795866,0.2249769,-0.1239327,0.02760039,-0.009431388,0.9956678,21.8668,-4.148979,-44.03941,984.7484
7.112384319,-0.0892375,-0.0175819,-0.002004489,0.02944986,0.001262899,0.9973644,21.86688,-4.149325,-43.97569,984.7484
7.132633686,-0.2117952,0.1036975,-0.0629686,0.03044564,-0.002597947,0.9962914,21.86688,-4.149325,-43.97569,984.7484
7.152878284,0.09459902,0.04305781,-0.002004489,0.03187481,-0.001108292,0.9953503,21.86688,-4.149325,-43.97569,984.7484
7.173127174,-0.02795866,-0.07822161,-0.1239327,0.02859411,-0.004657795,1.002999,21.86688,-4.149325,-43.97569,984.7507
7.193376064,-0.02795866,0.2249769,0.1808878,0.03290457,-0.003097301,0.9996195,21.49742,-4.150089,-43.97608,984.7507
7.213625431,0.03332018,0.1036975,-0.0629686,0.03090644,-0.001121075,0.9953611,21.49742,-4.150089,-43.97608,984.749
7.233873844,0.03332018,-0.199501,0.05895961,0.02751728,-0.0006864853,0.9958928,21.49742,-4.150089,-43.97608,984.749
7.254122734,0.03332018,-0.199501,-0.002004489,0.03387339,-0.001646528,1.001089,20.7585,-4.151618,-43.97687,984.7512
7.274372101,0.03332018,-0.07822161,0.05895961,0.03287671,-0.0006616628,0.9992008,20.7585,-4.151618,-43.97687,984.7512
7.292089939,0.03332018,0.2249769,-0.1239327,0.02804869,-0.002183063,0.9992176,21.50331,-4.51411,-43.9783,984.7512
7.312338829,0.03332018,0.1643372,-0.002004489,0.03094458,-0.001173058,0.99921,21.50331,-4.51411,-43.9783,984.7512
7.332587242,-0.02795866,-0.07822161,-0.0629686,0.03189835,-0.002099442,0.9967687,21.50331,-4.51411,-43.9783,984.7553
7.352832317,-0.02795866,-0.07822161,0.1808878,0.03143815,-0.001658993,0.9996732,21.13434,-4.516953,-43.59638,984.7553
7.373081684,-0.02795866,0.1643372,0.1199237,0.03241636,-0.0007005436,1.001612,21.13434,-4.516953,-43.59638,984.7553
7.393330574,0.09459902,0.2249769,-0.002004489,0.03239654,-0.003071204,0.9972194,21.13973,-4.878895,-43.9809,984.7553
7.413578987,-0.0892375,0.04305781,-0.0629686,0.02903599,-0.002675601,1.000638,21.13973,-4.878895,-43.9809,984.7577
7.433828354,-0.02795866,0.04305781,0.05895961,0.02907769,-0.006568723,1.001019,21.13973,-4.878895,-43.9809,984.7577
7.454077244,-0.02795866,0.1643372,0.05895961,0.02903629,-0.001716941,1.001625,20.77019,-4.879313,-44.04501,984.7577
7.474326134,-0.02795866,-0.0175819,0.1808878,0.02706125,-0.002169856,0.9973041,20.77019,-4.879313,-44.04501,984.7577
7.494574547,0.09459902,0.04305781,-0.002004489,0.03293332,-0.002656958,1.003,21.87277,-4.513345,-43.97791,984.7601
7.514823913,-0.2117952,-0.0175819,0.05895961,0.03094845,-0.004055537,0.9967296,21.87277,-4.513345,-43.97791,984.7601
7.532541752,-0.0892375,-0.07822161,0.05895961,0.03092983,-0.002591556,0.996286,21.87277,-4.513345,-43.97791,984.7601
7.552786827,0.03332018,0.04305781,-0.0629686,0.03335568,-0.002086765,0.9972336,21.13376,-4.514528,-44.0424,984.7584
7.573035717,0.03332018,-0.0175819,-0.1239327,0.03389216,-0.002631178,1.002027,21.13376,-4.514528,-44.0424,984.7584
7.593285084,-0.02795866,-0.07822161,0.05895961,0.03097334,-0.0007327143,1.00259,22.61169,-4.511817,-43.97712,984.7584
7.613533497,0.1558779,0.1643372,-0.002004489,0.03093981,-0.00116656,0.9987289,22.61169,-4.511817,-43.97712,984.7609
7.633782387,-0.0892375,-0.0175819,0.05895961,0.02899754,-0.003582278,0.9958015,22.61169,-4.511817,-43.97712,984.7609
7.654031753,0.09459902,-0.07822161,-0.0629686,0.03286241,-0.0006421702,0.9977575,21.12788,-4.150507,-44.04019,984.7632
7.674280643,-0.1505163,-0.0175819,-0.1239327,0.02855732,-0.0002918402,1.003592,21.12788,-4.150507,-44.04019,984.7632
7.694529056,-0.0892375,-0.2601407,-0.002004489,0.03000391,-0.004100808,0.9991459,21.86738,-4.151404,-43.59338,984.7615
7.714778423,-0.02795866,-0.1388613,0.05895961,0.03244331,-0.006012161,0.9990688,21.86738,-4.151404,-43.59338,984.7615
7.735027313,-0.1505163,0.1036975,0.1199237,0.0299476,-0.001146855,0.9963343,21.86738,-4.151404,-43.59338,984.7637
7.755272388,0.03332018,-0.1388613,-0.002004489,0.02950155,-0.001205228,1.000189,21.50331,-4.51411,-43.9783,984.7637
7.772990227,-0.2117952,0.1643372,-0.002004489,0.03241606,-0.001659205,1.000625,21.50331,-4.51411,-43.9783,984.7637
7.793239117,-0.1505163,-0.0175819,-0.0629686,0.02856013,-0.00652963,0.9976564,21.13327,-4.512449,-44.42472,984.7637
7.813487530,-0.0892375,-0.07822161,-0.0629686,0.03289086,-0.001160488,1.000151,21.13327,-4.512449,-44.42472,984.7637
7.833736896,-0.0892375,-0.199501,-0.0629686,0.02999513,-0.001691163,1.000652,21.13327,-4.512449,-44.42472,984.7603
7.853985786,-0.02795866,-0.1388613,-0.1239327,0.03529659,-0.003985016,0.9957185,21.50919,-4.87813,-43.98051,984.7603
7.874235153,0.1558779,-0.2601407,0.302816,0.02902108,-0.004573429,0.9972199,21.50919,-4.87813,-43.98051,984.7626
7.894483566,-0.0892375,-0.07822161,-0.1848968,0.03190001,0.003173191,1.002198,21.49742,-4.150089,-43.97608,984.7626
7.914732456,0.03332018,0.04305781,0.1808878,0.03047008,-0.0007131146,1.000671,21.49742,-4.150089,-43.97608,984.7634
7.934981823,0.03332018,-0.07822161,-0.0629686,0.03235438,-0.0006160717,0.9953574,21.49742,-4.150089,-43.97608,984.7634
7.955226898,-0.02795866,0.04305781,-0.002004489,0.02951912,-0.006024521,0.997177,21.86738,-4.151404,-43.59338,984.7617
7.975475311,0.03332018,-0.2601407,-0.0629686,0.02898429,-0.0002074745,0.9978134,21.86738,-4.151404,-43.59338,984.7617
7.995724201,-0.0892375,-0.07822161,-0.1239327,0.0342962,0.0003616558,0.9968041,21.86101,-3.785305,-43.97348,984.7607
8.013442039,0.09459902,-0.07822161,0.05895961,0.03000898,-0.003148646,1.000614,21.86101,-3.785305,-43.97348,984.7607
8.033690929,0.1558779,0.1036975,-0.002004489,0.03049302,-0.003621585,1.000115,21.86101,-3.785305,-43.97348,984.759
8.053940296,0.1558779,-0.1388613,-0.002004489,0.02806269,-0.003161217,0.9996737,20.7585,-4.151618,-43.97687,984.759
8.074189186,0.03332018,0.04305781,-0.1239327,0.02898906,-0.0002139723,0.9982945,20.7585,-4.151618,-43.97687,984.7556
8.094438553,0.03332018,0.1643372,0.1199237,0.02999989,-0.00169766,1.001133,20.76438,-4.515638,-43.97908,984.7556
8.114686966,-0.0892375,-0.07822161,0.05895961,0.03047023,-0.0002337843,1.001165,20.76438,-4.515638,-43.97908,984.7504
8.134935856,0.03332018,0.2249769,-0.0629686,0.03000512,-0.0002661673,1.003095,21.50331,-4.51411,-43.9783,984.7504
8.155180931,0.09459902,-0.199501,-0.1239327,0.03141461,-0.000667843,0.9982549,21.50331,-4.51411,-43.9783,984.7529
8.175430298,-0.0892375,-0.0175819,0.1199237,0.02757881,-0.002208949,1.000666,21.50331,-4.51411,-43.9783,984.7529
8.195678711,-0.02795866,-0.0175819,0.05895961,0.02957201,-0.004658007,1.00395,20.38308,-3.788015,-44.03876,984.7512
8.215927601,-0.0892375,0.1036975,-0.002004489,0.03388754,-0.002145351,1.002039,20.38308,-3.788015,-44.03876,984.7512
8.236176968,-0.02795866,-0.1388613,-0.002004489,0.03098212,-0.003142362,1.001084,20.75899,-4.153697,-43.59456,984.7536
8.253894806,-0.02795866,-0.0175819,0.1199237,0.02895092,-0.0001619896,0.9944457,20.75899,-4.153697,-43.59456,984.7536
8.274143696,-0.0892375,-0.07822161,0.1808878,0.02898369,-0.002124795,0.995839,20.75899,-4.153697,-43.59456,984.7518
8.294392109,-0.0892375,-0.0175819,0.05895961,0.02608765,-0.00361413,0.9953529,21.8615,-3.787384,-43.59117,984.7518
8.314640999,-0.02795866,0.2856166,0.1199237,0.03186081,-0.0001301384,0.9948942,21.8615,-3.787384,-43.59117,984.7501
8.334890365,0.03332018,-0.1388613,-0.1239327,0.03237792,-0.001607222,0.9967757,21.50323,-4.513763,-44.04202,984.7501
8.355135441,-0.02795866,0.1643372,0.1199237,0.03193991,-0.006471893,0.9966562,21.50323,-4.513763,-44.04202,984.7523
8.375384331,0.03332018,0.1643372,-0.002004489,0.02955309,-0.004152684,1.002519,21.50323,-4.513763,-44.04202,984.7523
8.395632744,0.2171567,0.1036975,0.1199237,0.03244407,-0.003615512,1.001537,21.13327,-4.512449,-44.42472,984.7506
8.415882110,-0.02795866,-0.1388613,-0.1239327,0.02953804,-0.006529842,0.9986078,21.13327,-4.512449,-44.42472,984.7506
8.436131000,-0.0892375,0.04305781,0.1199237,0.03190432,0.001728701,1.001199,21.87914,-4.879445,-43.59781,984.7546
8.456380367,-0.1505163,-0.07822161,0.1808878,0.03101058,-0.003660679,1.003477,21.87914,-4.879445,-43.59781,984.7546
8.476629257,-0.1505163,-0.199501,-0.0629686,0.03339352,-0.003097408,1.000095,21.87914,-4.879445,-43.59781,984.7531
8.494347095,0.03332018,-0.0175819,0.1199237,0.03335984,-0.004010582,0.9957402,20.39541,-4.518481,-43.59716,984.7531
8.514595508,-0.02795866,-0.0175819,0.05895961,0.03289443,-0.005001626,0.9966829,20.39541,-4.518481,-43.59716,984.7554
8.534844398,-0.02795866,0.04305781,0.05895961,0.03238791,-0.0001822263,0.9992187,21.12258,-3.788912,-43.59195,984.7554
8.555089950,0.1558779,0.1036975,-0.0629686,0.02849072,0.0002784589,0.9973503,21.12258,-3.788912,-43.59195,984.7537
8.575338840,0.09459902,-0.0175819,-0.002004489,0.03333259,0.0003423747,0.997296,21.12258,-3.788912,-43.59195,984.7537
8.595587730,-0.1505163,-0.199501,-0.002004489,0.0286038,-0.00419146,1.004454,21.13973,-4.878895,-43.9809,984.7503
8.615836143,0.2170885,-0.1388177,0.180831,0.02854824,0.001159145,1.004111,21.13973,-4.878895,-43.9809,984.7503
8.636085510,-0.08921611,0.1644629,-0.002113487,0.02903122,-0.002669103,1.000157,21.8668,-4.148979,-44.03941,984.7545
8.656334400,0.0334501,-0.3810412,-0.06314868,0.02614456,-0.004650766,1.000139,21.8668,-4.148979,-44.03941,984.7545
8.676583767,-0.02764346,-0.1384961,-0.002293823,0.02947279,-0.001645572,0.9968083,21.8668,-4.148979,-44.03941,984.751
8.696832180,-0.02778565,0.04327609,-0.002441076,0.03582013,-0.0001959661,1.003511,20.75842,-4.151272,-44.04058,984.751
8.717081070,0.03352437,-0.1387325,0.05849085,0.03144739,-0.002630648,0.9996483,20.75842,-4.151272,-44.04058,984.7534
8.734798908,-0.02773191,-0.07795926,0.1193456,0.02855747,0.0001874892,1.004086,21.49097,-3.783644,-44.4199,984.7534
8.755043983,-0.08899889,0.2253017,0.1192754,0.02752772,0.002176499,0.9998166,21.49097,-3.783644,-44.4199,984.75
8.775293350,-0.08894849,0.04315953,0.05829881,0.03240653,-0.00164621,0.9996624,21.49097,-3.783644,-44.4199,984.75
8.795542240,0.03356318,-0.1995076,-0.1245868,0.02997606,-0.00166517,0.9987273,21.8668,-4.148979,-44.03941,984.7507
8.815790653,-0.1502037,-0.07824107,-0.002709276,0.02851336,-0.00358867,0.9958069,21.8668,-4.148979,-44.03941,984.7507
8.836039543,0.03356768,-0.07831093,-0.002779044,0.03102041,-0.002715013,1.005427,21.50911,-4.877784,-44.04423,984.749
8.856288910,0.03371413,-0.01762681,-0.0637362,0.03141477,-0.0001885118,0.9987485,21.50911,-4.877784,-44.04423,984.749
8.876537800,-0.0275724,-0.3207048,0.05821802,0.02709462,-0.002215341,1.000672,21.50911,-4.877784,-44.04423,984.749
8.896787167,0.03356411,0.1642664,0.05807188,0.02998529,-0.002636826,0.9987023,21.13376,-4.514528,-44.0424,984.749
8.917035580,0.03353752,-0.1388306,0.1190241,0.02755959,-0.002662287,0.9982483,21.13376,-4.514528,-44.0424,984.7495
8.937284470,-0.02776773,-0.01764028,-0.06382271,0.03239744,-0.0001952229,1.000181,21.49792,-4.152168,-43.59377,984.7495
8.954998493,0.03341825,0.04307617,-0.002967155,0.02904537,-0.003167927,1.001106,21.49792,-4.152168,-43.59377,984.7477
8.975247383,0.03348811,-0.01757646,-0.1248305,0.02901305,0.0002328679,1.001194,21.49792,-4.152168,-43.59377,984.7477
8.995496750,0.09485602,-0.1388497,-0.002837707,0.02855612,-0.004126482,0.9996433,21.50323,-4.513763,-44.04202,984.7484
9.015745640,-0.02778582,0.1037914,-0.002887969,0.03193037,-0.006458896,0.995694,21.50323,-4.513763,-44.04202,984.7484
9.035994053,-0.08907174,-0.2597364,-0.06390221,0.03773243,-0.002055231,0.9991091,22.24215,-4.512235,-44.04123,984.7467
9.056243420,-0.08907887,-0.1991107,-0.002968943,0.02950125,-0.002163888,0.9992013,22.24215,-4.512235,-44.04123,984.7467
9.076492310,0.03352931,-0.07782602,0.05806,0.02998007,-0.00406832,0.9967404,22.24215,-4.512235,-44.04123,984.7475
9.096741200,-0.02775669,0.1039078,-0.002743811,0.02899338,-0.001658461,0.9972948,22.2486,-4.878681,-43.59742,984.7475
9.116990566,-0.1503408,-0.07800567,-0.06373934,0.02754558,-0.001684134,0.9977922,22.2486,-4.878681,-43.59742,984.7475
9.137238979,0.03350781,-0.07792395,-0.002653491,0.02614351,-0.008006076,0.9966838,21.14022,-4.880974,-43.59859,984.7475
9.157484055,-0.1503743,-0.138463,-0.06368744,0.02758819,-0.002701274,1.001135,21.14022,-4.880974,-43.59859,984.7458
9.177732945,-0.08892949,-0.01729272,-0.06375713,0.03146691,-0.00121865,1.003054,20.7643,-4.515292,-44.0428,984.7458
9.195450783,-0.08875339,-0.07785632,-0.06378926,0.02857027,-0.004625306,1.000593,20.7643,-4.515292,-44.0428,984.744
9.215700150,0.1563347,-0.01700209,-0.002875396,0.0319797,-0.001251244,1.005935,20.7643,-4.515292,-44.0428,984.744
9.235949040,0.09502868,-0.01720684,0.05805765,0.03349214,-0.008027162,1.005262,22.23627,-4.148215,-44.03902,984.7464
9.256198406,0.09509772,-0.01731585,0.0581223,0.03238269,-0.00161372,0.9972569,22.23627,-4.148215,-44.03902,984.7464
9.276446819,-0.02737186,0.1644564,-0.0637797,0.0314243,-0.0002015084,0.9997107,21.49734,-4.149743,-44.0398,984.7464
9.296695709,-0.1498414,0.1037844,-0.002865977,0.0299756,-0.003103161,0.9972465,21.49734,-4.149743,-44.0398,984.7464
9.316944599,0.03404437,0.04315045,0.05806702,0.03431482,-0.001102326,0.9972477,21.49734,-4.149743,-44.0398,984.7489
9.337193966,0.03399739,0.1038532,-0.002928056,0.03092119,0.0002974207,0.9982853,21.12845,-4.152933,-43.59417,984.7489
9.357439041,0.2176908,0.04325727,-0.1247723,0.03098734,-0.001710869,1.003047,21.12845,-4.152933,-43.59417,984.7472
9.377687454,-0.08871146,-0.01749108,-0.002779596,0.02901752,-0.0007322896,1.000687,21.12788,-4.150507,-44.04019,984.7472
9.397936344,-0.02728683,-0.01761851,0.1191173,0.0280107,-0.00165175,0.9958623,21.12788,-4.150507,-44.04019,984.7454
9.418185711,0.09514705,-0.01751719,-0.1245981,0.03097705,-0.004094524,0.9996162,21.12788,-4.150507,-44.04019,984.7454
9.435903549,-0.08862923,0.04310399,0.1191301,0.03240161,-0.002119041,0.9986877,21.14022,-4.880974,-43.59859,984.7479
9.456152439,-0.02732017,-0.1384476,0.05815397,0.02999513,-0.001691163,1.000652,21.14022,-4.880974,-43.59859,984.7479
9.476401806,0.09517144,0.04347644,0.05798879,0.03092967,-0.003070884,0.9957923,22.23684,-4.15064,-43.59299,984.7462
9.496650219,0.09525925,0.04365265,-0.06387456,0.03283947,0.0022663,0.9983135,22.23684,-4.15064,-43.59299,984.7462
9.516899109,0.1563757,0.04369525,0.05800359,0.02852334,-0.002163677,0.9982499,22.23684,-4.15064,-43.59299,984.75
9.537148476,0.03398316,0.04381391,0.1187837,0.03095025,0.001696425,1.002653,21.50323,-4.513763,-44.04202,984.75
9.557393551,0.0950998,0.2257372,-0.1250073,0.03046471,-0.002623937,0.9982157,21.50323,-4.513763,-44.04202,984.75
9.577642441,-0.2113023,0.1650446,-0.06399719,0.02955219,-0.007028666,0.9995575,21.13327,-4.512449,-44.42472,984.75
9.597891331,-0.08877173,-0.07752889,0.1796755,0.03189433,0.0003037071,0.9987556,21.13327,-4.512449,-44.42472,984.7507
9.618140221,0.09503762,-0.1986136,-0.06421106,0.02754112,-0.0007189754,0.9982983,21.13327,-4.512449,-44.42472,984.7507
9.638389110,-0.02741248,0.04379677,-0.003334454,0.0266143,-0.00510421,0.9981967,20.39484,-4.516056,-44.04319,984.749
9.658638000,-0.08873799,-0.1985866,-0.003345283,0.02848194,0.002688107,0.998856,20.39484,-4.516056,-44.04319,984.749
9.676355839,-0.02745651,0.04404683,-0.1861345,0.03191832,0.0007505482,1.001655,21.87326,-4.515424,-43.5956,984.7497
9.696605205,-0.1500029,-0.1984703,-0.003234105,0.03145245,-0.001678486,1.001117,21.87326,-4.515424,-43.5956,984.7497
9.716854095,0.09518132,0.1652192,-0.003245195,0.02662353,-0.006075866,0.9981717,21.87326,-4.515424,-43.5956,984.7462
9.737102508,0.03387501,0.1650518,-0.06420107,0.03624173,-0.002022423,0.9952765,21.86093,-3.784958,-44.03719,984.7462
9.757347584,-0.02762345,0.1043783,0.05763961,0.0299485,0.001729128,0.9992958,21.86093,-3.784958,-44.03719,984.7429
9.777596950,0.03355166,-0.07734623,-0.06426095,0.02851918,-0.0002398575,0.9997433,21.13434,-4.516953,-43.59638,984.7429
9.797845840,0.03354436,-0.0166074,0.1184483,0.02945909,0.0002912423,0.9973394,21.13434,-4.516953,-43.59638,984.7411
9.818095207,-0.02770333,0.1652772,0.0575886,0.03093013,-0.001632895,0.9972731,21.13434,-4.516953,-43.59638,984.7411
9.838343620,-0.08897028,-0.07741114,0.1794295,0.0280916,-0.002241544,1.003548,20.40023,-4.877998,-44.42772,984.7453
9.858592510,0.156003,0.04375822,0.1793042,0.02706245,0.001664786,1.001253,20.40023,-4.877998,-44.42772,984.7453
9.878841400,0.09460177,-0.1988723,-0.003540923,0.02564221,-0.001755185,1.001182,20.76438,-4.515638,-43.97908,984.7436
9.899090767,-0.02811648,0.1041787,0.1183196,0.02950677,0.0002262648,1.00215,20.76438,-4.515638,-43.97908,984.7436
9.916808605,0.1557239,-0.07783602,0.05719126,0.03243453,-0.003602517,1.000575,20.76438,-4.515638,-43.97908,984.7436
9.937053680,0.03317917,0.04341043,-0.06467015,0.02663934,-0.001302059,1.004551,21.50323,-4.513763,-44.04202,984.746
9.957302570,0.0331344,0.04352982,-0.06462269,0.03191341,0.0002777148,1.00068,21.50323,-4.513763,-44.04202,984.746
9.977550983,-0.02841978,-0.1991192,0.240073,0.03054917,-0.007054869,1.002433,20.76381,-4.513214,-44.42511,984.7443
