// Start Time: 0
// Sample rate: 50.0Hz
// Scenario: 4.9
// Firmware Version: 2.5.1
Counter	Acc_X	Acc_Y	Acc_Z	Gyr_X	Gyr_Y	Gyr_Z	Mag_X	Mag_Y	Mag_Z	Quat_w	Quat_x	Quat_y	Quat_z
 2552	4.374240	8.578849	-1.814515	0.059158	-0.030138	0.050860	-0.484053	-1.107940	0.265724	0.567189	0.769786	0.003829	0.292765	
 2553	4.474578	8.604048	-1.819616	0.032979	-0.008316	0.031548	-0.484605	-1.108990	0.267544	0.566843	0.769998	0.003635	0.292879	
 2554	4.374881	8.540353	-1.805151	0.022677	0.009977	0.018773	-0.485015	-1.109239	0.266979	0.566614	0.770098	0.003613	0.293061	
 2555	4.353542	8.525646	-1.800349	0.031094	-0.013835	-0.016402	-0.485092	-1.109833	0.268035	0.566423	0.770314	0.003752	0.292860	
 2556	4.335495	8.600095	-1.821406	0.032923	-0.008324	-0.032043	-0.483746	-1.108800	0.269473	0.566264	0.770523	0.004048	0.292613	
 2557	4.287751	8.582917	-1.828455	0.019870	-0.010231	-0.036662	-0.483789	-1.109154	0.268530	0.566219	0.770664	0.004330	0.292325	
 2558	4.249860	8.551346	-1.828449	0.014239	-0.002016	-0.057819	-0.482213	-1.109688	0.269291	0.566279	0.770748	0.004805	0.291981	
 2559	4.196169	8.606087	-1.842274	0.020766	-0.005634	-0.061502	-0.479083	-1.109797	0.270426	0.566299	0.770878	0.005308	0.291588	
 2560	4.198075	8.635032	-1.851699	0.013316	-0.009345	-0.056922	-0.478567	-1.110320	0.270451	0.566364	0.770978	0.005732	0.291192	
 2561	4.123055	8.677276	-1.851146	0.023629	-0.030354	-0.045937	-0.478344	-1.111612	0.269645	0.566317	0.771197	0.005983	0.290696	
 2562	4.107898	8.725092	-1.855615	0.009634	-0.017579	-0.020043	-0.477261	-1.112983	0.270763	0.566304	0.771301	0.006064	0.290445	
 2563	4.156218	8.713032	-1.822415	0.017133	-0.027626	-0.009966	-0.476843	-1.113410	0.271452	0.566203	0.771477	0.006034	0.290174	
 2564	4.218908	8.696714	-1.808432	-0.002417	-0.034171	0.002862	-0.476698	-1.114626	0.271710	0.566217	0.771563	0.005808	0.289924	
 2565	4.235069	8.581988	-1.811486	0.005042	-0.017603	0.038939	-0.476162	-1.113570	0.272295	0.566067	0.771644	0.005422	0.290007	
 2566	4.240165	8.560630	-1.818793	0.023702	-0.018403	0.050945	-0.478705	-1.114462	0.272653	0.565739	0.771834	0.004989	0.290149	
 2567	4.273317	8.578421	-1.852326	0.018125	-0.023020	0.068422	-0.479738	-1.113281	0.272604	0.565403	0.772006	0.004383	0.290357	
 2568	4.345340	8.563222	-1.890986	0.021884	-0.030339	0.091414	-0.480656	-1.113282	0.272144	0.564979	0.772222	0.003543	0.290619	
 2569	4.393794	8.528132	-1.905731	0.007041	-0.061623	0.095803	-0.483106	-1.112142	0.274677	0.564649	0.772443	0.002476	0.290683	
 2570	4.545168	8.510810	-1.911278	-0.004153	-0.060807	0.094812	-0.484985	-1.111030	0.272969	0.564417	0.772598	0.001363	0.290731	
 2571	4.606347	8.425757	-1.935902	-0.008802	-0.073702	0.078102	-0.487699	-1.111489	0.275194	0.564259	0.772763	0.000318	0.290601	
 2572	4.617348	8.339389	-1.922049	-0.009761	-0.063631	0.065244	-0.487626	-1.111692	0.273993	0.564157	0.772892	-0.000607	0.290454	
 2573	4.636804	8.327317	-1.905459	-0.008844	-0.055375	0.065287	-0.488623	-1.112019	0.274592	0.564036	0.773002	-0.001450	0.290393	
 2574	4.704110	8.316256	-1.912990	-0.019098	-0.057287	0.065237	-0.489939	-1.110147	0.274001	0.564008	0.773059	-0.002371	0.290291	
 2575	4.769589	8.282701	-1.872804	-0.027559	-0.035357	0.033971	-0.489113	-1.109655	0.275264	0.564122	0.773005	-0.002914	0.290208	
 2576	4.815589	8.259052	-1.861176	-0.015441	-0.032542	0.033983	-0.490593	-1.110684	0.273684	0.564160	0.773011	-0.003455	0.290112	
 2577	4.767901	8.246159	-1.841899	0.008769	-0.023223	0.016559	-0.488414	-1.110625	0.273691	0.564044	0.773127	-0.003691	0.290027	
 2578	4.733685	8.279754	-1.865486	0.002242	-0.032436	-0.000094	-0.489838	-1.111314	0.273322	0.564060	0.773233	-0.003959	0.289708	
 2579	4.735972	8.286965	-1.865459	-0.032226	-0.052834	-0.018703	-0.488020	-1.111159	0.273842	0.564361	0.773204	-0.004209	0.289194	
 2580	4.752734	8.291764	-1.855944	-0.021955	-0.066544	-0.039074	-0.484904	-1.112854	0.274551	0.564675	0.773274	-0.004435	0.288393	
 2581	4.711122	8.357562	-1.814768	-0.039712	-0.060240	-0.075936	-0.479983	-1.113033	0.272859	0.565198	0.773226	-0.004307	0.287498	
 2582	4.641151	8.394385	-1.778397	-0.071337	-0.096193	-0.091837	-0.479206	-1.114756	0.272884	0.566052	0.773101	-0.004461	0.286147	
 2583	4.574065	8.546705	-1.767748	-0.089936	-0.130238	-0.120631	-0.474239	-1.115654	0.272120	0.567085	0.772968	-0.004528	0.284456	
 2584	4.555807	8.651230	-1.733651	-0.123432	-0.174478	-0.158744	-0.468096	-1.118681	0.271667	0.568527	0.772767	-0.004765	0.282109	
 2585	4.459723	8.808557	-1.751541	-0.168055	-0.244441	-0.180390	-0.460982	-1.121085	0.270084	0.570319	0.772504	-0.005241	0.279188	
 2586	4.464727	8.949918	-1.750835	-0.257508	-0.289949	-0.227809	-0.453990	-1.124824	0.265799	0.572991	0.771847	-0.006042	0.275493	
 2587	4.506818	9.024371	-1.736292	-0.339452	-0.344577	-0.249459	-0.445700	-1.130416	0.261704	0.576270	0.770853	-0.007032	0.271382	
 2588	4.370044	8.896693	-1.655037	-0.430628	-0.423990	-0.265654	-0.435866	-1.133559	0.255205	0.580341	0.769522	-0.008805	0.266390	
 2589	4.243643	8.703086	-1.626775	-0.493849	-0.486711	-0.246671	-0.425915	-1.138821	0.248281	0.584741	0.767951	-0.011054	0.261165	
 2590	4.185309	8.339860	-1.456217	-0.599874	-0.554272	-0.190889	-0.416110	-1.145525	0.238119	0.589873	0.765878	-0.014720	0.255467	
 2591	4.353697	8.186502	-1.352544	-0.631370	-0.592049	-0.094356	-0.408414	-1.149550	0.226925	0.594842	0.763648	-0.019113	0.250278	
 2592	4.448742	7.978874	-1.210564	-0.676006	-0.581273	0.017241	-0.404577	-1.153131	0.215490	0.599971	0.761034	-0.024840	0.245450	
 2593	4.748246	8.001488	-1.211785	-0.666610	-0.590415	0.078877	-0.400484	-1.156438	0.204076	0.604682	0.758429	-0.030633	0.241261	
 2594	5.023251	8.084342	-1.121719	-0.629338	-0.569135	0.094616	-0.398597	-1.159241	0.192127	0.609210	0.755912	-0.036883	0.236852	
 2595	4.973072	7.934172	-1.064879	-0.616414	-0.529648	0.029397	-0.395148	-1.160025	0.180843	0.613586	0.753370	-0.041813	0.232803	
 2596	4.733753	7.611411	-0.988954	-0.555867	-0.513684	-0.034905	-0.390908	-1.162948	0.169845	0.617807	0.751111	-0.046600	0.227981	
 2597	4.849184	7.595794	-0.979984	-0.501003	-0.466624	-0.077042	-0.384152	-1.165494	0.160618	0.621515	0.749090	-0.050075	0.223777	
 2598	5.413222	8.006768	-1.090382	-0.450890	-0.386630	-0.072138	-0.376666	-1.167586	0.153315	0.624989	0.747142	-0.053421	0.219803	
 2599	5.541329	8.094740	-1.104849	-0.399641	-0.366149	-0.044340	-0.368997	-1.168933	0.147239	0.627867	0.745453	-0.056295	0.216597	
 2600	5.455495	8.042255	-1.166908	-0.291476	-0.370977	-0.035913	-0.364148	-1.169022	0.141267	0.629990	0.744414	-0.059294	0.213179	
 2601	5.454441	8.095852	-1.214452	-0.182310	-0.417101	-0.054516	-0.358405	-1.168427	0.138036	0.631205	0.744170	-0.061953	0.209652	
 2602	5.720934	8.488191	-1.404919	-0.120867	-0.436083	-0.133088	-0.350192	-1.167146	0.138315	0.632151	0.744381	-0.064129	0.205353	
 2603	5.699294	8.598748	-1.562075	-0.065033	-0.449562	-0.242872	-0.337944	-1.165826	0.139922	0.632828	0.745031	-0.065355	0.200467	
 2604	5.296411	8.255671	-1.648128	-0.053832	-0.493509	-0.347189	-0.322926	-1.165709	0.140353	0.633608	0.745886	-0.066061	0.194503	
 2605	4.991612	7.919204	-1.770454	-0.063215	-0.488042	-0.392240	-0.306040	-1.163221	0.142543	0.634491	0.746674	-0.066418	0.188382	
 2606	4.790685	7.689406	-1.897477	-0.119189	-0.472750	-0.372758	-0.289259	-1.160229	0.145268	0.635759	0.747040	-0.066860	0.182405	
 2607	4.684670	7.437361	-1.807435	-0.070688	-0.440303	-0.310658	-0.272247	-1.156666	0.147482	0.636527	0.747589	-0.067546	0.177151	
 2608	4.554830	7.279266	-1.884189	-0.125763	-0.408507	-0.292029	-0.260037	-1.151032	0.148617	0.637703	0.747697	-0.068192	0.172147	
 2609	4.385511	7.077428	-1.827083	-0.154630	-0.416912	-0.301261	-0.245773	-1.142931	0.147247	0.639052	0.747626	-0.068953	0.167072	
 2610	4.503148	7.067086	-1.842009	-0.193888	-0.390598	-0.337171	-0.231060	-1.136504	0.149891	0.640790	0.747258	-0.069261	0.161855	
 2611	4.549590	7.170329	-1.827337	-0.243494	-0.334074	-0.397790	-0.219311	-1.126657	0.149722	0.642971	0.746509	-0.068926	0.156722	
 2612	4.445704	7.383942	-1.787513	-0.272653	-0.263653	-0.496986	-0.201949	-1.118630	0.148817	0.645595	0.745494	-0.067349	0.151360	
 2613	4.183613	7.599878	-1.713493	-0.269940	-0.253524	-0.572457	-0.185189	-1.107459	0.148989	0.648240	0.744516	-0.065242	0.145686	
 2614	4.005363	7.963792	-1.686910	-0.289626	-0.233442	-0.623948	-0.169158	-1.096876	0.147235	0.651139	0.743363	-0.062543	0.139703	
 2615	3.783014	8.235959	-1.648646	-0.229950	-0.235772	-0.622886	-0.154308	-1.083635	0.147850	0.653501	0.742585	-0.059895	0.133854	
 2616	3.668411	8.649931	-1.696218	-0.186147	-0.214333	-0.552566	-0.140131	-1.069853	0.150568	0.655486	0.741969	-0.057455	0.128530	
 2617	3.575818	9.033253	-1.756002	-0.168449	-0.172851	-0.428665	-0.130156	-1.056073	0.151146	0.657118	0.741349	-0.055761	0.124456	
 2618	3.679077	9.440015	-1.921754	-0.109612	-0.177918	-0.268180	-0.121769	-1.041223	0.153508	0.658165	0.740991	-0.055092	0.121306	
 2619	3.656874	9.627026	-1.944603	-0.073106	-0.177586	-0.092871	-0.119506	-1.025101	0.156566	0.658649	0.740807	-0.055810	0.119466	
 2620	3.952503	10.151425	-2.134521	-0.108443	-0.205300	0.022094	-0.120697	-1.009872	0.156983	0.659314	0.740320	-0.057470	0.118022	
 2621	3.827423	10.629481	-2.157803	-0.104697	-0.205205	0.072875	-0.125323	-0.991961	0.158155	0.659799	0.739868	-0.059647	0.117061	
 2622	3.437090	11.082698	-2.043728	-0.092506	-0.252749	0.022949	-0.126601	-0.975979	0.159513	0.660307	0.739533	-0.061607	0.115280	
 2623	3.063593	11.418577	-1.796423	-0.119431	-0.287669	0.013641	-0.125906	-0.958788	0.159278	0.660902	0.739111	-0.063911	0.113310	
 2624	4.106510	12.983437	-1.341073	0.048692	-0.371110	0.120818	-0.126289	-0.943314	0.160553	0.660166	0.739767	-0.067216	0.111389	
 2625	3.341778	12.969326	-2.308574	-0.259212	-0.323266	0.230813	-0.129583	-0.926358	0.162731	0.661501	0.738304	-0.071517	0.110492	
 2626	3.903549	13.473989	-1.562416	0.213241	-0.539655	0.265810	-0.132754	-0.910584	0.161960	0.659238	0.740102	-0.076828	0.108410	
 2627	3.534253	13.198481	-0.906987	-0.249332	-0.477331	0.121019	-0.133397	-0.894968	0.160413	0.660472	0.738923	-0.081314	0.105630	
 2628	2.624723	12.648322	-0.240996	-0.370904	-0.334930	-0.122314	-0.128688	-0.883032	0.155146	0.663064	0.736912	-0.083028	0.102039	
 2629	2.307037	11.750637	0.664468	-0.492411	-0.128361	-0.201301	-0.121995	-0.872825	0.145569	0.666694	0.733976	-0.083065	0.099491	
 2630	1.779291	10.991310	1.224853	-0.498174	0.024887	-0.186315	-0.118280	-0.861864	0.135412	0.670551	0.730770	-0.082042	0.098011	
 2631	1.531914	10.414289	1.813620	-0.535395	0.073338	-0.162881	-0.114924	-0.852666	0.122934	0.674613	0.727250	-0.081041	0.097150	
 2632	1.554325	9.964764	2.035981	-0.403832	0.080569	-0.118410	-0.110249	-0.845088	0.113857	0.677727	0.724532	-0.080044	0.096604	
 2633	1.714642	9.783206	1.857378	-0.298324	0.003201	-0.118821	-0.105600	-0.836156	0.107071	0.679973	0.722593	-0.079597	0.095714	
 2634	1.679651	9.226614	1.759017	-0.206800	-0.059549	-0.123684	-0.102530	-0.828835	0.102030	0.681539	0.721335	-0.079323	0.094273	
 2635	1.901318	8.585093	1.372124	-0.100378	-0.118578	-0.073274	-0.099327	-0.821927	0.099799	0.682232	0.720793	-0.079839	0.092969	
 2636	1.928664	7.860189	1.220010	-0.227015	-0.170723	-0.028530	-0.098807	-0.815491	0.094983	0.683759	0.719418	-0.081025	0.091358	
 2637	2.030914	7.088984	1.029063	-0.010616	-0.156552	0.103668	-0.099318	-0.808030	0.095595	0.683624	0.719358	-0.082994	0.091068	
 2638	2.114650	6.450305	0.910619	0.026670	-0.111375	0.200806	-0.101029	-0.801485	0.095182	0.683159	0.719469	-0.085192	0.091657	
 2639	2.195922	5.987722	0.850483	0.029589	-0.131533	0.270767	-0.104897	-0.795824	0.095151	0.682608	0.719497	-0.088159	0.092732	
 2640	2.347419	5.764797	0.700402	0.032463	-0.158136	0.312981	-0.110130	-0.790794	0.098766	0.681944	0.719579	-0.091477	0.093756	
 2641	2.602649	5.676084	0.607938	0.056731	-0.169044	0.334054	-0.117949	-0.783408	0.102116	0.681098	0.719739	-0.095138	0.095031	
 2642	2.771845	5.585183	0.578019	0.094040	-0.164253	0.366341	-0.123621	-0.777529	0.104646	0.679914	0.720175	-0.098820	0.096429	
 2643	3.005427	5.667830	0.529577	0.134072	-0.147551	0.362697	-0.130441	-0.770485	0.107387	0.678491	0.720774	-0.102478	0.098148	
 2644	3.398996	6.100052	0.458310	0.172198	-0.124462	0.359018	-0.136522	-0.765145	0.114828	0.676767	0.721685	-0.105758	0.099859	
 2645	3.550453	6.398131	0.492647	0.185155	-0.098737	0.330525	-0.143002	-0.758855	0.119317	0.675044	0.722575	-0.108816	0.101788	
 2646	3.732906	6.855141	0.501360	0.233563	-0.086555	0.305664	-0.148375	-0.754373	0.128127	0.672949	0.723895	-0.111388	0.103477	
 2647	4.187709	7.675686	0.450950	0.328697	-0.127318	0.304405	-0.154176	-0.748250	0.136132	0.670169	0.725766	-0.114315	0.105207	
 2648	5.147572	9.137406	0.241375	0.436763	-0.139645	0.327092	-0.158880	-0.740043	0.145842	0.666489	0.728449	-0.117182	0.106881	
 2649	5.559306	9.880529	-0.043583	0.363940	-0.127290	0.372095	-0.164801	-0.734869	0.153959	0.663354	0.730418	-0.120583	0.109136	
 2650	6.151870	10.484446	-0.081377	0.434791	-0.094790	0.498488	-0.169458	-0.727648	0.164593	0.659509	0.732782	-0.124394	0.112271	
 2651	6.631859	11.228897	-0.644017	0.361699	0.034060	0.616099	-0.178419	-0.719126	0.173767	0.656271	0.734176	-0.128538	0.117353	
 2652	5.532771	10.697443	-0.440984	0.240297	0.125218	0.540406	-0.185273	-0.712323	0.178507	0.654026	0.734891	-0.131417	0.122124	
 2653	8.970086	15.314208	-1.073396	0.515565	0.249224	0.551949	-0.193629	-0.705479	0.186760	0.649956	0.737019	-0.133498	0.128605	
 2654	7.891129	14.595382	-2.325291	0.337262	0.632570	0.516628	-0.201364	-0.697795	0.194664	0.647630	0.737671	-0.132774	0.137069	
 2655	4.793469	12.018366	-2.312782	0.389145	0.755280	0.263206	-0.206740	-0.694355	0.197845	0.645453	0.738583	-0.129585	0.145237	
 2656	1.486024	10.022664	-2.138519	0.464634	0.365522	0.043739	-0.205627	-0.690296	0.202788	0.642425	0.740974	-0.126892	0.148819	
 2657	3.000925	11.731206	-3.394272	1.059109	0.370672	0.064966	-0.207043	-0.685699	0.213992	0.634977	0.746926	-0.123674	0.153659	
 2658	3.268017	12.469388	-4.879011	0.777381	0.245014	-0.007286	-0.208374	-0.681050	0.224267	0.629469	0.751462	-0.120886	0.156400	
 2659	3.327696	11.233028	-4.945429	0.726116	-0.106591	0.078189	-0.204521	-0.677660	0.235657	0.623765	0.755964	-0.121251	0.157269	
 2660	3.512250	10.613502	-5.501821	0.427427	0.012607	0.125529	-0.205687	-0.672626	0.241271	0.620351	0.758443	-0.121469	0.158665	
 2661	3.374030	9.255219	-5.199732	0.206333	0.151621	0.192613	-0.201617	-0.675583	0.248572	0.618623	0.759178	-0.121903	0.161536	
 2662	3.413825	8.131316	-4.524197	-0.126758	0.345858	0.202644	-0.203574	-0.673317	0.245272	0.619680	0.757573	-0.121526	0.165260	
 2663	3.179642	6.956593	-3.610968	-0.255691	0.558795	0.158710	-0.207966	-0.673787	0.241775	0.621936	0.754828	-0.119936	0.170425	
 2664	2.899623	6.107104	-2.698251	-0.602609	0.672279	0.091817	-0.208088	-0.677237	0.233430	0.627114	0.749786	-0.117492	0.175342	
 2665	2.621895	5.291819	-1.694500	-0.722122	0.840352	0.038416	-0.209907	-0.679218	0.221790	0.633305	0.743680	-0.114030	0.181280	
 2666	2.610605	4.862331	-0.914727	-0.701582	0.914788	0.041683	-0.213941	-0.682675	0.206511	0.639452	0.737474	-0.109833	0.187537	
 2667	2.671592	4.944576	-0.421980	-0.737020	0.944823	-0.005233	-0.214995	-0.686767	0.194621	0.645786	0.730925	-0.105400	0.193907	
 2668	2.913440	5.214784	-0.129937	-0.632521	0.919726	-0.041336	-0.213462	-0.689613	0.183317	0.651423	0.725047	-0.100401	0.199687	
 2669	3.185306	5.658967	-0.023648	-0.589713	0.925413	-0.112396	-0.214366	-0.692256	0.171993	0.656720	0.719397	-0.095013	0.205326	
 2670	3.168211	5.874092	0.113838	-0.521622	0.903805	-0.158563	-0.210468	-0.694448	0.164726	0.661624	0.714219	-0.089026	0.210284	
 2671	3.112390	6.302320	-0.141961	-0.343578	0.879210	-0.178796	-0.209582	-0.694778	0.156224	0.665124	0.710184	-0.082941	0.215336	
 2672	2.897914	6.351060	-0.188577	-0.337749	0.796777	-0.121082	-0.206746	-0.695366	0.151051	0.668422	0.706288	-0.077529	0.219906	
 2673	3.088247	7.462022	-0.427609	-0.173593	0.751951	-0.044708	-0.203599	-0.696673	0.146957	0.670229	0.703450	-0.072856	0.225041	
 2674	3.898986	8.050765	-0.542975	-0.331757	0.638116	0.115521	-0.203315	-0.696285	0.144843	0.672753	0.699680	-0.070161	0.230063	
 2675	4.927043	8.895795	-0.528864	-0.109463	0.555976	0.392499	-0.206426	-0.695252	0.141451	0.672896	0.697343	-0.069718	0.236777	
 2676	5.545238	9.139317	0.129613	-0.353373	0.571089	0.706629	-0.212225	-0.694028	0.138156	0.674056	0.693080	-0.071660	0.245264	
 2677	6.211924	10.789554	-0.591798	-0.221189	0.603044	0.838555	-0.221866	-0.690654	0.137855	0.673815	0.689442	-0.074269	0.255201	
 2678	6.639128	10.016945	0.480762	-0.336179	0.472977	0.890101	-0.230456	-0.688193	0.132529	0.674176	0.685262	-0.078097	0.264203	
 2679	5.658972	9.632807	0.442508	-0.244419	0.267285	0.761165	-0.239846	-0.686131	0.129284	0.673904	0.682253	-0.082497	0.271255	
 2680	6.405778	11.056441	0.716719	-0.128679	0.113679	0.534065	-0.244464	-0.685451	0.129265	0.673417	0.680618	-0.085748	0.275528	
 2681	12.140177	16.250808	-1.307501	0.461528	0.235510	0.720222	-0.252159	-0.681404	0.134979	0.668308	0.682414	-0.088163	0.282671	
 2682	2.957395	8.024908	3.232080	-0.610684	-0.150192	0.075959	-0.254987	-0.682908	0.126489	0.672114	0.678669	-0.091436	0.281619	
 2683	4.555292	12.107573	-0.615871	-0.123208	-0.291767	-0.276615	-0.249467	-0.686127	0.131874	0.673327	0.678885	-0.092194	0.277933	
 2684	5.685811	11.807658	0.582721	-0.472053	0.156067	-0.599453	-0.239329	-0.691061	0.128976	0.678321	0.675797	-0.088409	0.274523	
 2685	4.910967	12.135308	0.645258	-0.845616	0.379544	-0.704306	-0.228461	-0.698847	0.119534	0.686140	0.669586	-0.083688	0.271778	
 2686	4.060914	12.268681	1.424502	-0.717948	0.461211	-0.766037	-0.215003	-0.707381	0.107842	0.693370	0.663996	-0.077367	0.269003	
 2687	3.760468	11.520862	1.895456	-0.633618	0.354477	-0.747060	-0.204128	-0.715576	0.098528	0.699737	0.659180	-0.071892	0.265859	
 2688	3.153975	10.179698	2.149508	-0.837057	0.430284	-0.902449	-0.190723	-0.722194	0.088598	0.707903	0.652765	-0.065179	0.261769	
 2689	2.311733	7.994911	2.538957	-0.103329	0.214820	-0.731876	-0.179153	-0.729773	0.083213	0.710567	0.651897	-0.059348	0.258075	
 2690	1.792549	7.296573	2.049865	-0.450086	0.136636	-0.762959	-0.165243	-0.735591	0.078674	0.715523	0.648765	-0.054590	0.253280	
 2691	1.518511	6.504565	1.346375	-0.147659	0.016589	-0.581514	-0.154073	-0.741706	0.075825	0.717931	0.647930	-0.051231	0.249274	
 2692	1.636982	5.868855	0.969537	-0.117847	0.079181	-0.392059	-0.146343	-0.746613	0.076248	0.719706	0.647074	-0.048443	0.246923	
 2693	1.662878	5.356943	0.701357	-0.378826	0.073961	-0.273397	-0.138988	-0.748194	0.074425	0.722846	0.644253	-0.047216	0.245362	
 2694	1.872694	4.563320	0.868500	-0.078418	0.135487	-0.002492	-0.135388	-0.752113	0.074330	0.723420	0.643347	-0.046441	0.246193	
 2695	2.398191	4.893467	0.454170	-0.004077	0.257904	0.165048	-0.135882	-0.751758	0.077512	0.723137	0.642570	-0.045788	0.249157	
 2696	2.641082	4.760639	0.655657	-0.032009	0.299932	0.262031	-0.137342	-0.754021	0.078988	0.722821	0.641459	-0.045410	0.252977	
 2697	2.773472	4.787321	0.841720	0.128640	0.233070	0.356773	-0.140538	-0.752927	0.082007	0.721164	0.641602	-0.045843	0.257230	
 2698	3.488836	5.514889	0.799232	0.162354	0.142346	0.351354	-0.143732	-0.753447	0.087675	0.719277	0.642233	-0.046681	0.260764	
 2699	4.054410	6.208634	0.931799	0.128696	0.153947	0.296724	-0.145021	-0.750560	0.093248	0.717701	0.642591	-0.047325	0.264088	
 2700	4.765278	6.826635	1.103979	0.119226	0.199608	0.258872	-0.147391	-0.747648	0.100357	0.716340	0.642786	-0.047269	0.267299	
 2701	5.119053	7.024402	1.493190	0.169306	0.342936	0.251342	-0.150285	-0.745673	0.107150	0.714676	0.642932	-0.046197	0.271556	
 2702	5.372348	7.846973	1.964980	0.371467	0.467103	0.324153	-0.151952	-0.742146	0.115649	0.711606	0.644147	-0.043962	0.277056	
 2703	5.348976	8.313104	2.622685	0.560865	0.479328	0.359509	-0.154338	-0.739362	0.125160	0.707129	0.646581	-0.041566	0.283149	
 2704	6.353466	9.988629	2.406839	0.813449	0.432063	0.305565	-0.156254	-0.734135	0.139416	0.701149	0.650945	-0.038210	0.288444	
 2705	5.663226	9.990278	2.034505	0.799319	0.381545	0.098895	-0.158037	-0.729590	0.156476	0.695726	0.655322	-0.034148	0.292153	
 2706	4.958466	9.624769	1.440350	0.922206	0.375920	-0.008650	-0.159187	-0.723950	0.173460	0.689800	0.660603	-0.028810	0.294873	
 2707	11.209093	17.528117	1.343164	1.177590	0.243547	0.145905	-0.157643	-0.718917	0.193147	0.681532	0.667868	-0.024925	0.298068	
 2708	4.630054	11.921347	0.394330	-0.412647	1.189585	-0.258894	-0.157875	-0.716180	0.202127	0.685297	0.661514	-0.016347	0.304137	
 2709	4.527360	11.344212	-0.918584	1.209094	0.965533	-0.188306	-0.157466	-0.712379	0.216644	0.677846	0.666811	-0.005083	0.309616	
 2710	4.919142	13.666444	-1.250315	0.253073	0.492698	-0.506939	-0.153100	-0.709498	0.225253	0.677732	0.667003	0.002390	0.309486	
 2711	4.606100	12.495428	-2.321444	0.455978	0.579216	-0.488556	-0.146077	-0.708909	0.232930	0.676003	0.668354	0.010746	0.310175	
 2712	5.120733	12.422380	-3.323656	0.961959	0.650980	-0.390026	-0.141894	-0.706795	0.245793	0.670660	0.672741	0.020705	0.311779	
 2713	4.477284	12.381256	-3.062741	0.473437	0.604053	-0.533555	-0.141049	-0.703419	0.255922	0.668730	0.674107	0.029604	0.312255	
 2714	4.530640	11.664847	-3.267534	0.506733	1.060881	-0.680249	-0.135562	-0.702874	0.263633	0.667060	0.673916	0.042831	0.314696	
 2715	3.472303	9.927010	-2.458741	0.558216	1.465811	-0.764930	-0.131974	-0.700928	0.269238	0.664644	0.672913	0.059313	0.319247	
 2716	2.199610	8.706846	-2.167614	0.193181	1.339102	-0.748017	-0.128948	-0.703070	0.270737	0.664854	0.669397	0.073824	0.323150	
 2717	1.632727	7.271004	-1.450327	0.333569	1.277768	-0.592061	-0.126671	-0.703242	0.270078	0.663152	0.667357	0.087186	0.327510	
 2718	1.428642	6.592729	-1.175527	0.324175	1.397958	-0.472260	-0.124510	-0.702239	0.272504	0.661236	0.664441	0.100628	0.333404	
 2719	1.299517	6.039305	-0.871723	0.331742	1.441197	-0.352931	-0.124869	-0.700809	0.273171	0.658293	0.661809	0.113454	0.340275	
 2720	1.335973	5.880003	-0.786622	0.290781	1.453821	-0.280039	-0.126999	-0.698519	0.274404	0.655592	0.658387	0.125822	0.347701	
 2721	1.715045	5.342480	-0.508918	0.385623	1.663513	-0.124777	-0.135471	-0.694730	0.274451	0.650894	0.655310	0.138734	0.357293	
 2722	1.651738	5.363437	-0.640045	0.336986	1.776126	0.028061	-0.143319	-0.689036	0.274300	0.646009	0.651095	0.151259	0.368604	
 2723	1.474631	5.599134	-0.795862	0.361224	1.788281	0.104786	-0.149821	-0.685636	0.272596	0.640038	0.647343	0.163298	0.380306	
 2724	1.441160	5.614088	-0.721507	0.211577	1.608553	0.140463	-0.158426	-0.681300	0.269836	0.635415	0.642730	0.173435	0.391236	
 2725	2.169346	6.490000	-1.121973	0.430647	1.596037	0.225173	-0.167240	-0.674755	0.268299	0.628466	0.640011	0.183653	0.402105	
 2726	3.221854	7.829905	-1.418674	0.448863	1.738162	0.283693	-0.178893	-0.666394	0.266472	0.621148	0.636267	0.194504	0.414134	
 2727	3.865845	9.192914	-1.789951	0.394222	1.922105	0.318562	-0.187748	-0.658468	0.264150	0.612958	0.631804	0.205852	0.427472	
 2728	4.000881	9.953956	-1.676636	0.341794	2.020868	0.355002	-0.198008	-0.652711	0.259033	0.604979	0.625866	0.217381	0.441630	
 2729	3.852432	11.078807	-1.469314	0.272932	1.963677	0.372159	-0.207923	-0.645832	0.253153	0.596679	0.620151	0.227923	0.455454	
 2730	3.297638	11.794590	-1.281415	0.121314	1.814328	0.376856	-0.216487	-0.638582	0.246028	0.589961	0.613377	0.236896	0.468609	
 2731	2.067090	11.907070	-0.887960	-0.030114	1.619245	0.376037	-0.224955	-0.636223	0.235095	0.583892	0.607087	0.243837	0.480686	
 2732	8.623547	17.699759	0.468443	0.566784	1.241336	0.735164	-0.233028	-0.630682	0.230115	0.573809	0.606164	0.249289	0.491084	
 2733	1.728727	9.542795	2.535188	-0.529360	1.941243	0.776162	-0.242398	-0.628731	0.216311	0.567659	0.596062	0.252898	0.508445	
 2734	-1.297677	10.215879	0.357011	0.547664	0.546084	0.948243	-0.249276	-0.623092	0.217691	0.558136	0.598765	0.253085	0.515667	
 2735	2.839039	12.692790	-0.433023	0.423861	1.350502	0.555424	-0.257952	-0.618567	0.218939	0.548714	0.596162	0.259378	0.525573	
 2736	2.486241	11.181477	2.219823	0.021066	1.619630	0.491330	-0.267875	-0.618054	0.204142	0.541713	0.588973	0.265384	0.537800	
 2737	3.440926	13.042606	0.168684	0.561611	1.805112	0.308071	-0.274565	-0.615928	0.201071	0.531352	0.583662	0.276275	0.548340	
 2738	2.050175	11.935079	1.756970	0.018736	1.605735	0.096597	-0.275628	-0.618830	0.194545	0.526193	0.575169	0.284286	0.558107	
 2739	2.375327	12.268180	0.571180	0.382485	1.441845	0.124449	-0.279249	-0.619282	0.191098	0.518674	0.570045	0.293275	0.565699	
 2740	1.711447	10.979697	1.040971	0.356655	1.443693	0.230816	-0.281066	-0.619818	0.185093	0.511028	0.564362	0.301410	0.574019	
 2741	2.634319	10.406225	0.522170	0.591729	1.411949	0.379018	-0.288122	-0.621071	0.184889	0.500752	0.560963	0.309905	0.581831	
 2742	2.699637	9.800669	0.164855	0.373683	1.354655	0.429142	-0.295104	-0.620391	0.183649	0.491892	0.556244	0.316401	0.590360	
 2743	2.645872	7.888708	0.786531	0.442679	1.521136	0.586171	-0.302563	-0.619087	0.180516	0.480649	0.551832	0.323264	0.599966	
 2744	2.424097	7.737448	0.050241	0.260070	1.435717	0.687921	-0.313482	-0.617076	0.177440	0.470369	0.546644	0.327868	0.610275	
 2745	2.327952	6.160467	0.415578	0.335189	1.344521	0.848962	-0.322675	-0.615474	0.172864	0.458452	0.543349	0.331630	0.620173	
 2746	2.453345	5.877637	0.126613	0.098714	1.208265	0.940999	-0.334271	-0.613697	0.166265	0.448005	0.539389	0.332613	0.630650	
 2747	2.732696	5.378106	0.237571	0.017030	1.115123	1.051865	-0.347275	-0.609825	0.159875	0.437086	0.536505	0.332068	0.640976	
 2748	3.236087	5.305899	0.431033	-0.036965	1.129417	1.135633	-0.360510	-0.604251	0.154163	0.426184	0.532831	0.330618	0.652035	
 2749	3.746012	5.132490	0.659813	-0.110617	1.173842	1.196498	-0.375212	-0.599988	0.147135	0.414590	0.529243	0.328505	0.663401	
 2750	3.824427	4.680348	1.051688	-0.118847	1.157272	1.209291	-0.388502	-0.591807	0.137716	0.403323	0.524997	0.326056	0.674831	
 2751	3.985184	4.641135	1.442931	-0.094459	1.112429	1.158264	-0.400753	-0.585082	0.128476	0.391875	0.521483	0.323754	0.685326	
 2752	4.996109	5.216281	2.029625	0.002683	1.057797	1.116133	-0.411645	-0.577605	0.120938	0.380727	0.517823	0.322048	0.695120	
 2753	6.544953	6.331933	2.480402	0.028604	1.112670	1.030067	-0.420328	-0.572516	0.116580	0.369321	0.514131	0.321003	0.704435	
 2754	6.238402	6.430201	2.917483	0.187988	1.097097	0.825508	-0.427618	-0.566569	0.111924	0.358967	0.509725	0.322095	0.712445	
 2755	7.142478	7.767036	3.190544	0.410864	0.977116	0.584828	-0.432436	-0.563144	0.110596	0.349040	0.506761	0.325341	0.717995	
 2756	7.849508	8.386086	3.056667	0.399302	1.017142	0.356912	-0.438313	-0.559976	0.108528	0.341106	0.502007	0.329921	0.723040	
 2757	7.250487	8.007171	2.973696	0.673133	1.011377	0.011519	-0.436765	-0.561815	0.108601	0.333759	0.497681	0.337916	0.725763	
 2758	8.742228	10.113189	2.707676	0.940936	1.119894	-0.293511	-0.432045	-0.563818	0.113418	0.327371	0.491675	0.349899	0.727086	
 2759	11.374372	13.352770	-0.276433	0.923720	1.694259	-0.386332	-0.429257	-0.569337	0.117792	0.319057	0.481718	0.363742	0.730645	
 2760	6.326882	8.562915	3.791313	1.066442	1.679491	-0.681956	-0.420715	-0.577185	0.113412	0.312711	0.470294	0.380090	0.732507	
 2761	4.783326	9.336808	0.990095	0.655397	1.745112	-0.678720	-0.411172	-0.586738	0.113883	0.307320	0.457663	0.393214	0.735854	
 2762	6.201747	11.419972	0.872542	1.220810	1.578741	-0.501668	-0.405410	-0.594329	0.115877	0.299141	0.447762	0.409256	0.736568	
 2763	6.948026	12.544045	0.033286	0.818031	1.520285	-0.354299	-0.404704	-0.599600	0.119587	0.291212	0.438313	0.421156	0.738718	
 2764	5.803004	10.621664	0.671737	0.786435	1.255321	-0.180133	-0.401079	-0.605683	0.119862	0.283767	0.430556	0.431363	0.740286	
 2765	6.117486	10.205217	-0.154399	1.046925	1.131278	0.073864	-0.403107	-0.609257	0.125560	0.273163	0.426284	0.441793	0.740596	
 2766	6.123085	9.173965	-0.331907	0.992006	1.134617	0.164230	-0.406107	-0.610782	0.132562	0.262666	0.421301	0.451490	0.741397	
 2767	4.974472	7.206967	-0.614296	0.972364	1.149273	0.067009	-0.408654	-0.612760	0.138250	0.252176	0.416506	0.461242	0.741745	
 2768	4.014198	6.446425	-1.245214	1.110183	1.128160	-0.082934	-0.409805	-0.614819	0.143625	0.242926	0.410536	0.472612	0.741002	
 2769	3.507339	6.362633	-1.673806	1.144445	1.132952	-0.237640	-0.411085	-0.617825	0.151651	0.233898	0.404691	0.484660	0.739339	
 2770	3.317925	6.443802	-1.897319	1.019086	1.241297	-0.365283	-0.407918	-0.621734	0.158746	0.226422	0.396107	0.496515	0.738448	
 2771	3.002282	6.285373	-1.693470	0.864080	1.358731	-0.382145	-0.402596	-0.627150	0.162482	0.218326	0.387047	0.507377	0.738307	
 2772	2.670025	6.263678	-1.510364	0.857493	1.423916	-0.331813	-0.403498	-0.629717	0.164926	0.210201	0.376703	0.518035	0.738614	
 2773	2.785052	6.617116	-1.387104	0.796028	1.432763	-0.236867	-0.403839	-0.632045	0.165671	0.200780	0.367488	0.527751	0.738998	
 2774	2.906712	6.864470	-1.223768	0.730771	1.468173	-0.158372	-0.404273	-0.631611	0.167387	0.191491	0.357255	0.536619	0.740094	
 2775	2.930231	7.220534	-1.167040	0.760541	1.509661	-0.116596	-0.405777	-0.631957	0.168087	0.180788	0.347837	0.545517	0.740768	
 2776	3.187316	7.763857	-1.363853	0.795934	1.526304	-0.086189	-0.405622	-0.631496	0.167411	0.170310	0.337484	0.554402	0.741443	
 2777	3.098516	7.961436	-1.228530	0.855618	1.535877	-0.072192	-0.408628	-0.630588	0.168969	0.158693	0.328077	0.563593	0.741313	
 2778	3.017763	8.343234	-1.326633	0.805345	1.532918	0.050441	-0.411240	-0.629402	0.168017	0.147022	0.318262	0.571759	0.741745	
 2779	3.613034	9.665827	-1.992021	1.004626	1.612089	0.230724	-0.417555	-0.625273	0.170346	0.132145	0.310019	0.580855	0.740968	
 2780	3.860659	9.788248	-1.982931	0.872428	1.596673	0.421326	-0.424951	-0.620176	0.171550	0.117035	0.301770	0.588037	0.741249	
 2781	4.508577	10.989745	-2.048979	0.782807	1.673176	0.592046	-0.433337	-0.612988	0.168179	0.099694	0.294699	0.594051	0.741834	
 2782	5.161843	11.348087	-2.234174	0.389245	1.730340	0.708820	-0.444987	-0.607167	0.166182	0.083010	0.286443	0.596484	0.745162	
 2783	5.038853	11.811608	-2.372320	0.829194	1.733920	0.629117	-0.457438	-0.598651	0.160966	0.064854	0.278923	0.602366	0.745085	
 2784	4.336502	10.254289	-1.272460	0.604473	1.440958	0.512163	-0.467573	-0.593809	0.152905	0.050681	0.271657	0.606315	0.745665	
 2785	4.060225	11.335418	-1.358914	0.388280	1.329641	0.442170	-0.474772	-0.589552	0.147295	0.037546	0.265599	0.608834	0.746572	
 2786	8.202919	16.184414	-1.192215	0.519077	1.132614	0.538082	-0.483284	-0.584227	0.141082	0.025271	0.260619	0.611672	0.746523	
 2787	3.817606	11.640119	-1.408877	-0.702411	1.533057	0.236611	-0.488717	-0.584350	0.125247	0.015261	0.251426	0.606365	0.754237	
 2788	0.957877	7.829076	0.765066	-0.084603	1.237485	0.329071	-0.491895	-0.584001	0.109411	0.005510	0.244083	0.605064	0.757820	
 2789	4.204755	10.516715	0.195302	-0.262084	1.265187	0.387614	-0.497079	-0.583890	0.094512	-0.005079	0.237774	0.602401	0.761939	
 2790	4.440790	10.079647	1.516742	-0.307655	1.614142	0.034454	-0.498088	-0.585061	0.075585	-0.014307	0.225694	0.599840	0.767496	
 2791	4.110809	10.884089	1.338235	-0.037671	1.594544	-0.375727	-0.497336	-0.591887	0.055484	-0.021510	0.212125	0.600333	0.770806	
 2792	2.915069	10.358490	1.926719	-0.015360	1.591109	-0.651017	-0.491948	-0.600359	0.038463	-0.025984	0.195948	0.601195	0.774270	
 2793	2.190678	10.251374	1.585063	0.140676	1.420674	-0.658950	-0.482575	-0.608222	0.027186	-0.030259	0.181808	0.603376	0.775866	
 2794	2.047833	10.040793	1.115933	0.262445	1.202299	-0.502331	-0.473510	-0.615247	0.017640	-0.034063	0.169376	0.605940	0.776523	
 2795	2.125235	9.288410	0.803241	0.476241	1.152298	-0.290261	-0.467836	-0.622585	0.012282	-0.040118	0.159313	0.609948	0.775225	
 2796	2.363389	8.657257	0.385242	0.428131	1.047476	-0.079800	-0.464283	-0.625631	0.005782	-0.046539	0.150544	0.612967	0.774237	
 2797	2.536613	7.967197	0.251786	0.369829	0.932510	0.102029	-0.463234	-0.628411	0.000596	-0.054099	0.144556	0.615488	0.772885	
 2798	2.813782	7.645934	-0.061964	0.382155	0.884813	0.210436	-0.464239	-0.628882	-0.003340	-0.061689	0.138816	0.617662	0.771633	
 2799	3.154706	7.355291	0.059360	0.318098	0.812851	0.289135	-0.463924	-0.627451	-0.007441	-0.069870	0.134904	0.619477	0.770173	
 2800	3.584288	7.232858	0.205068	0.278018	0.829956	0.309317	-0.466017	-0.626647	-0.011037	-0.077732	0.130244	0.620629	0.769294	
 2801	3.768077	6.904392	0.456025	0.313577	0.808122	0.315621	-0.468315	-0.625764	-0.016249	-0.086076	0.126522	0.622265	0.767704	
 2802	3.770245	7.013655	0.255715	0.258597	0.756398	0.272812	-0.468916	-0.625947	-0.018161	-0.093165	0.122200	0.623267	0.766763	
 2803	3.531289	6.175078	0.749837	0.254976	0.755464	0.214815	-0.469866	-0.623890	-0.024606	-0.100331	0.118298	0.624518	0.765452	
 2804	3.446225	6.622772	0.460793	0.321030	0.754934	0.150334	-0.467891	-0.623617	-0.026212	-0.106535	0.113145	0.626054	0.764137	
 2805	3.294591	6.604779	0.808106	0.248467	0.679272	0.047485	-0.467262	-0.624243	-0.029254	-0.111932	0.108775	0.627436	0.762865	
 2806	3.476424	6.937841	0.785098	0.332420	0.654995	0.055656	-0.463738	-0.624209	-0.030631	-0.116783	0.103765	0.629197	0.761384	
 2807	4.329917	8.313498	0.628162	0.419265	0.563698	0.102801	-0.462221	-0.624011	-0.031065	-0.122053	0.100419	0.631884	0.758776	
 2808	4.409362	8.141584	1.145819	0.419994	0.724235	0.153554	-0.459130	-0.623133	-0.033393	-0.128169	0.095388	0.634046	0.756610	
 2809	4.393495	8.847661	1.159094	0.439177	0.866615	0.176609	-0.457716	-0.623454	-0.034528	-0.135932	0.090181	0.636320	0.753981	
 2810	4.404029	9.771049	1.350321	0.544272	0.981031	0.188462	-0.455150	-0.624578	-0.037320	-0.144031	0.083248	0.638916	0.751073	
 2811	4.108302	10.571009	1.300764	0.488205	1.011047	0.185917	-0.456918	-0.623710	-0.039426	-0.152801	0.076920	0.641176	0.748083	
 2812	3.528511	11.030977	1.449197	0.444503	0.938430	0.115564	-0.455288	-0.623480	-0.042926	-0.159969	0.069965	0.642981	0.745714	
 2813	8.102834	15.551894	0.997731	0.935753	0.895781	0.327911	-0.454476	-0.622439	-0.041923	-0.169338	0.064674	0.648484	0.739331	
 2814	2.158188	10.215264	1.699802	0.081762	1.004362	0.105984	-0.451728	-0.622796	-0.048969	-0.176631	0.057798	0.647324	0.739210	
 2815	2.094798	11.670104	-0.879740	0.654112	0.795954	0.144973	-0.451686	-0.624043	-0.048183	-0.183694	0.052408	0.650889	0.734747	
 2816	3.672818	12.905085	-2.009087	0.781311	0.484561	0.156402	-0.448423	-0.624833	-0.044243	-0.188351	0.048429	0.655667	0.729574	
 2817	3.693473	11.785894	-2.337763	0.673050	0.551755	0.225864	-0.447957	-0.626380	-0.042633	-0.194362	0.045279	0.659729	0.724521	
 2818	4.817072	12.110765	-3.118259	0.587042	0.577599	0.266947	-0.450447	-0.626263	-0.041053	-0.200317	0.041711	0.662752	0.720342	
 2819	4.202055	11.128650	-2.981881	0.517838	0.649651	0.120903	-0.449084	-0.625907	-0.042030	-0.206101	0.037435	0.665515	0.716387	
 2820	3.611940	10.649363	-3.067784	0.484410	0.557686	-0.035379	-0.446406	-0.627469	-0.041193	-0.209684	0.032202	0.667870	0.713404	
 2821	3.280135	10.206354	-2.647729	0.544173	0.530544	-0.139554	-0.439796	-0.630844	-0.039883	-0.212764	0.026945	0.671141	0.709631	
 2822	2.620699	9.232766	-2.233727	0.341136	0.467930	-0.225642	-0.435702	-0.632593	-0.040181	-0.214340	0.021379	0.672652	0.707913	
 2823	2.149016	7.938489	-1.721784	0.199390	0.548752	-0.255531	-0.428300	-0.637563	-0.041250	-0.216588	0.015906	0.673445	0.706617	
 2824	1.876605	6.995516	-1.548475	-0.050620	0.664691	-0.206099	-0.422886	-0.640366	-0.046289	-0.219541	0.009925	0.671702	0.707474	
 2825	1.717945	5.986541	-0.864291	-0.219942	0.663786	-0.030008	-0.418201	-0.640543	-0.055745	-0.224061	0.006038	0.669211	0.708461	
 2826	1.897623	5.605844	-0.639888	-0.182654	0.773226	0.167102	-0.417994	-0.639516	-0.064937	-0.230348	0.002079	0.666190	0.709314	
 2827	2.179783	5.309881	-0.276815	-0.152655	0.794521	0.297225	-0.419302	-0.637086	-0.073536	-0.238024	-0.000706	0.663781	0.709041	
 2828	2.648414	5.586841	-0.200961	-0.059334	0.776687	0.347763	-0.417260	-0.633251	-0.081633	-0.245583	-0.003773	0.661527	0.708559	
 2829	2.801602	5.625824	-0.144055	-0.033202	0.758457	0.319027	-0.417547	-0.629331	-0.087473	-0.253137	-0.006431	0.659946	0.707355	
 2830	2.827189	5.832086	-0.143106	0.117846	0.719890	0.235011	-0.416610	-0.627194	-0.091924	-0.259480	-0.010281	0.658991	0.705901	
 2831	2.963256	6.860160	-0.463624	0.240882	0.624247	0.089675	-0.418899	-0.625119	-0.096851	-0.264476	-0.014202	0.659592	0.703413	
 2832	3.157545	7.974429	-0.872433	0.341513	0.533048	-0.046462	-0.415351	-0.625655	-0.095027	-0.267554	-0.019173	0.660601	0.701180	
 2833	3.602448	9.091507	-1.028876	0.498214	0.466074	-0.038588	-0.412754	-0.623888	-0.094166	-0.270528	-0.023528	0.663371	0.697280	
 2834	3.866038	10.748976	-1.743665	0.479449	0.411832	-0.027095	-0.409089	-0.623752	-0.089787	-0.272895	-0.027890	0.665617	0.694050	
 2835	3.354537	10.779322	-1.757963	0.405327	0.238184	0.043023	-0.407682	-0.622788	-0.087010	-0.274902	-0.029897	0.668369	0.690520	
 2836	3.519561	11.658185	-2.024381	0.552951	0.110738	0.176092	-0.406147	-0.620095	-0.081393	-0.276630	-0.031021	0.671960	0.686283	
 2837	3.317514	11.991839	-2.057628	0.361093	0.025270	0.216955	-0.407178	-0.617336	-0.075806	-0.278369	-0.030319	0.675053	0.682565	
 2838	4.434619	12.930920	-1.151502	0.473501	-0.079597	0.373747	-0.408822	-0.612744	-0.072235	-0.280177	-0.028589	0.678642	0.678328	
 2839	6.566211	15.845897	-3.496578	0.188060	0.142133	0.552718	-0.415114	-0.605859	-0.063718	-0.284992	-0.025934	0.680335	0.674723	
 2840	4.497707	12.096123	-0.175681	0.210400	0.182142	0.568738	-0.418688	-0.599677	-0.068398	-0.289949	-0.023912	0.681405	0.671599	
 2841	2.952063	10.963286	0.518840	-0.138381	0.277504	0.476420	-0.422458	-0.593034	-0.071749	-0.295200	-0.021759	0.680426	0.670376	
 2842	3.938897	12.425274	0.435882	-0.167057	0.479795	0.341567	-0.423732	-0.586382	-0.076542	-0.300726	-0.022179	0.677986	0.670378	
 2843	4.096342	12.506609	1.033406	-0.447267	0.697222	0.214284	-0.422484	-0.583074	-0.085232	-0.307085	-0.023712	0.673545	0.671918	
 2844	3.879990	12.483218	1.373806	-0.643503	0.850076	0.038890	-0.417785	-0.577639	-0.099415	-0.313148	-0.027207	0.666617	0.675884	
 2845	3.370653	11.420098	2.298399	-0.764524	0.849392	-0.054163	-0.412133	-0.573831	-0.115298	-0.318721	-0.030599	0.659330	0.680268	
 2846	2.713718	10.419133	2.642903	-0.807134	0.752890	-0.147656	-0.409284	-0.571308	-0.133651	-0.322850	-0.034145	0.651390	0.685780	
 2847	2.165171	8.686845	3.217496	-0.541751	0.617939	-0.102697	-0.403622	-0.569925	-0.146763	-0.326421	-0.037017	0.646166	0.688874	
 2848	1.715767	7.837328	2.784705	-0.218709	0.421849	-0.074725	-0.394421	-0.566555	-0.152536	-0.328653	-0.039718	0.643283	0.690360	
 2849	1.528317	7.115140	2.363356	-0.048534	0.197257	-0.063805	-0.389482	-0.565810	-0.156484	-0.329562	-0.041080	0.642765	0.690329	
 2850	1.388008	6.694424	1.737704	0.186865	-0.027852	-0.032552	-0.386627	-0.564305	-0.155611	-0.329024	-0.041740	0.644167	0.689239	
 2851	1.641311	6.430860	0.647206	0.204929	-0.257115	0.019474	-0.384085	-0.563166	-0.150487	-0.327456	-0.040301	0.646899	0.687510	
 2852	1.738605	6.065972	0.747714	0.222514	-0.171723	0.049489	-0.380554	-0.561159	-0.146088	-0.326536	-0.039557	0.649043	0.685969	
 2853	2.045830	5.649371	0.423771	0.365398	-0.263542	0.124613	-0.381441	-0.560405	-0.143060	-0.325559	-0.037941	0.652909	0.682848	
 2854	2.206416	5.786995	0.337679	0.086944	-0.432213	0.086332	-0.380658	-0.557884	-0.137093	-0.323233	-0.034737	0.654970	0.682150	
 2855	2.434788	5.634238	0.445869	0.159701	-0.430901	0.090946	-0.377920	-0.555070	-0.133134	-0.320987	-0.031540	0.657927	0.680517	
 2856	2.935472	5.813644	0.382386	0.303262	-0.408082	0.154680	-0.378423	-0.552848	-0.127254	-0.319198	-0.028748	0.661374	0.678138	
 2857	3.206803	6.027449	0.635746	0.243458	-0.316741	0.198405	-0.378777	-0.550778	-0.120966	-0.318392	-0.025886	0.664528	0.675543	
 2858	3.159995	6.338127	0.893417	0.193027	-0.248204	0.238443	-0.378134	-0.545836	-0.117778	-0.318243	-0.023270	0.666713	0.673553	
 2859	3.955474	7.383084	1.084157	0.278500	-0.098262	0.313811	-0.379044	-0.541452	-0.114965	-0.319656	-0.021218	0.669391	0.670288	
 2860	4.940759	8.262078	1.299497	0.283125	-0.053407	0.402228	-0.379485	-0.535549	-0.110229	-0.321873	-0.019104	0.671570	0.667103	
 2861	5.910200	9.710457	1.041987	0.229587	0.079141	0.474481	-0.381122	-0.528151	-0.109022	-0.325561	-0.016976	0.673332	0.663585	
 2862	6.227459	10.085764	1.394014	0.134050	0.277535	0.446835	-0.382932	-0.522844	-0.108925	-0.330310	-0.016278	0.673418	0.661164	
 2863	6.270028	10.367998	1.689400	0.103078	0.367216	0.397509	-0.382731	-0.518772	-0.109788	-0.335452	-0.016134	0.673321	0.658673	
 2864	4.604855	9.579494	2.591874	0.064967	0.384700	0.278372	-0.381361	-0.513473	-0.112962	-0.339804	-0.017046	0.672530	0.657226	
 2865	8.912468	14.570213	2.586398	0.868101	0.147721	0.423608	-0.378690	-0.508984	-0.110318	-0.343502	-0.017866	0.678108	0.649505	
 2866	6.232547	13.526148	1.600624	-0.271097	0.331940	0.201289	-0.378631	-0.505846	-0.108798	-0.347047	-0.017761	0.675270	0.650579	
 2867	2.672218	9.961395	2.506822	0.596551	0.226779	0.028823	-0.374189	-0.504486	-0.106889	-0.348722	-0.020893	0.678653	0.646054	
 2868	1.978652	10.411247	1.369229	1.072851	-0.249015	-0.029505	-0.369314	-0.504526	-0.098560	-0.346540	-0.023261	0.686438	0.638883	
 2869	2.315969	11.605770	-0.512803	0.992267	-0.725676	-0.124886	-0.365980	-0.505160	-0.084859	-0.340518	-0.022782	0.695493	0.632311	
 2870	3.616939	12.727543	-2.272776	0.879087	-0.812939	-0.229442	-0.360139	-0.507285	-0.067011	-0.333131	-0.022267	0.703748	0.627110	
 2871	4.320501	12.119310	-2.609041	0.638085	-0.657770	-0.268737	-0.351306	-0.511884	-0.056625	-0.326613	-0.022085	0.710170	0.623293	
 2872	4.096529	11.182129	-2.832863	0.454679	-0.363536	-0.245874	-0.344155	-0.514640	-0.046452	-0.322335	-0.023089	0.714155	0.620927	
 2873	3.371733	9.941672	-2.405596	0.325583	-0.098203	-0.226584	-0.342084	-0.514218	-0.043240	-0.320060	-0.025116	0.716792	0.618983	
 2874	2.724776	9.049928	-2.129920	0.281628	0.041101	-0.146189	-0.337249	-0.516606	-0.038689	-0.319319	-0.027358	0.718395	0.617410	
 2875	2.079465	7.914861	-1.281609	0.143782	0.131252	-0.039421	-0.331340	-0.517262	-0.038453	-0.319854	-0.028919	0.719222	0.616098	
 2876	1.841340	7.255997	-1.040035	0.161380	0.251588	0.037069	-0.326509	-0.518022	-0.039357	-0.321786	-0.030758	0.719450	0.614735	
 2877	1.585423	6.559998	-0.621622	0.021767	0.234319	0.113500	-0.323202	-0.518972	-0.039961	-0.324011	-0.031490	0.719230	0.613786	
 2878	1.928617	6.134528	-0.462743	0.017153	0.278294	0.218785	-0.320248	-0.515829	-0.039591	-0.327290	-0.031720	0.718530	0.612854	
 2879	2.130872	5.921610	0.018285	-0.184710	0.165194	0.311911	-0.320337	-0.515464	-0.041462	-0.330283	-0.029938	0.717306	0.612771	
 2880	2.469362	6.267335	-0.320999	-0.042941	0.105454	0.319861	-0.320094	-0.513041	-0.041544	-0.332952	-0.028189	0.716818	0.611981	
 2881	2.683815	5.814868	-0.080383	-0.072579	0.033653	0.270439	-0.320811	-0.512162	-0.045853	-0.334702	-0.026271	0.716680	0.611272	
 2882	2.693532	5.807749	-0.078072	-0.205835	-0.035083	0.175790	-0.320937	-0.510022	-0.048368	-0.335521	-0.024149	0.715615	0.612159	
 2883	2.750032	5.857541	-0.142630	-0.190903	-0.089179	0.071225	-0.317832	-0.510103	-0.047769	-0.335198	-0.022513	0.715095	0.613004	
 2884	3.396576	6.498182	-0.314385	-0.067869	-0.116079	0.047862	-0.316920	-0.508883	-0.050098	-0.334619	-0.021273	0.715110	0.613347	
 2885	4.143413	7.477669	-0.484841	0.024331	-0.120241	0.032856	-0.315072	-0.508360	-0.048903	-0.333794	-0.020438	0.715997	0.612790	
 2886	4.533881	8.201295	-0.765022	0.246100	-0.094179	0.065364	-0.311433	-0.509120	-0.047879	-0.333412	-0.020257	0.717862	0.610819	
 2887	4.505813	9.200012	-1.400600	0.279592	-0.160932	0.029006	-0.309562	-0.509033	-0.043481	-0.332210	-0.020055	0.720443	0.608438	
 2888	4.185637	9.539162	-1.540897	0.328251	-0.257786	0.023992	-0.309653	-0.510023	-0.040028	-0.330372	-0.019446	0.723326	0.606032	
 2889	4.586215	10.653461	-1.953018	0.427147	-0.337934	0.063097	-0.306013	-0.511995	-0.036349	-0.328034	-0.018430	0.727378	0.602474	
 2890	3.584934	10.271801	-1.883559	0.321138	-0.427328	0.091458	-0.305861	-0.513507	-0.030482	-0.325356	-0.016287	0.730752	0.599900	
 2891	8.589636	15.663545	-1.277927	0.980030	-0.685391	0.371732	-0.305406	-0.514942	-0.020854	-0.322187	-0.012736	0.739206	0.591276	
 2892	5.169771	13.694245	-4.039456	-0.688658	-0.271346	0.195657	-0.306275	-0.515831	-0.012103	-0.321359	-0.007510	0.736043	0.595745	
 2893	3.996524	10.157715	-0.936667	0.373602	-0.442654	0.094054	-0.307905	-0.517117	-0.011425	-0.318384	-0.005506	0.740043	0.592399	
 2894	4.599900	11.025482	-0.863153	-0.225005	-0.450961	0.097693	-0.308469	-0.518019	-0.009872	-0.315578	-0.001440	0.740174	0.593761	
 2895	5.822538	12.471796	-1.360927	-0.444762	-0.270929	0.074001	-0.307959	-0.520939	-0.010149	-0.313759	0.001977	0.738723	0.596523	
 2896	5.851209	11.885499	-0.249763	-0.408544	-0.106544	0.027084	-0.309352	-0.526992	-0.013001	-0.313066	0.004050	0.736646	0.599439	
 2897	5.409396	10.905317	0.512352	-0.628767	0.016865	-0.107806	-0.308782	-0.529811	-0.020222	-0.312269	0.004977	0.733125	0.604144	
 2898	4.967245	10.201650	1.094161	-0.583241	0.110710	-0.236129	-0.304443	-0.532598	-0.023593	-0.311562	0.004355	0.729285	0.609141	
 2899	3.667381	8.794562	1.623568	-0.511451	0.138808	-0.401352	-0.301104	-0.537833	-0.029336	-0.309874	0.002024	0.726001	0.613919	
 2900	2.789512	7.957061	1.431874	-0.302515	0.052088	-0.549781	-0.297163	-0.542885	-0.033166	-0.306807	-0.001392	0.724012	0.617798	
 2901	2.267107	7.320405	0.971810	-0.171002	-0.032400	-0.647705	-0.293669	-0.549357	-0.035711	-0.302340	-0.005527	0.723249	0.620863	
 2902	2.019743	6.748455	0.549112	-0.058045	-0.112406	-0.635044	-0.288225	-0.556221	-0.034929	-0.297522	-0.009289	0.723210	0.623187	
 2903	1.808620	6.187151	0.217173	-0.028129	-0.144287	-0.584381	-0.281868	-0.562809	-0.033817	-0.292601	-0.012721	0.723591	0.625011	
 2904	1.936471	6.003457	-0.243460	0.095077	-0.194886	-0.465614	-0.277334	-0.569292	-0.030549	-0.288205	-0.015192	0.724719	0.625692	
 2905	2.117352	6.062742	-0.353959	0.156715	-0.201818	-0.339292	-0.275744	-0.573724	-0.027039	-0.284353	-0.017037	0.726409	0.625446	
 2906	2.401822	6.511751	-0.615951	0.108098	-0.148003	-0.251526	-0.270928	-0.578748	-0.025869	-0.281625	-0.018288	0.727491	0.625388	
 2907	2.630320	6.850406	-0.902174	-0.045904	-0.104942	-0.222030	-0.270059	-0.584310	-0.024158	-0.279238	-0.019318	0.727643	0.626250	
 2908	2.618959	6.692213	-0.778594	0.087417	-0.070175	-0.184766	-0.272223	-0.590403	-0.021582	-0.277492	-0.020509	0.728380	0.626131	
 2909	2.546475	6.672876	-0.438816	-0.096297	-0.041022	-0.232724	-0.269955	-0.595904	-0.022854	-0.275513	-0.021881	0.728025	0.627371	
 2910	2.337101	7.074480	-0.273208	-0.043230	-0.013139	-0.267468	-0.267989	-0.600960	-0.025075	-0.273687	-0.023669	0.727759	0.628412	
 2911	2.591146	7.456881	-0.078683	0.074174	0.039840	-0.236686	-0.268472	-0.607280	-0.024932	-0.272229	-0.026049	0.728230	0.628406	
 2912	3.033962	8.349284	0.112845	0.006862	0.110918	-0.239294	-0.269020	-0.614730	-0.026280	-0.271469	-0.028550	0.727936	0.628966	
 2913	3.616899	8.851933	-0.269764	0.061051	0.070859	-0.087528	-0.267544	-0.620637	-0.025338	-0.271184	-0.029996	0.728259	0.628648	
 2914	3.633547	9.199905	-0.170006	-0.116912	0.069866	0.041398	-0.268489	-0.626482	-0.026822	-0.271927	-0.029859	0.727376	0.629355	
 2915	4.319711	10.149642	-0.074918	0.055503	0.144268	0.193019	-0.273550	-0.631353	-0.028555	-0.273955	-0.029699	0.727532	0.628303	
 2916	4.019533	10.377531	0.102156	-0.076928	0.158199	0.158949	-0.278387	-0.637917	-0.031101	-0.276066	-0.029369	0.726690	0.628368	
 2917	3.726332	10.477740	0.321583	-0.011731	0.175130	0.073460	-0.283070	-0.644506	-0.033103	-0.277593	-0.030085	0.726275	0.628141	
 2918	6.798738	14.723525	0.454084	0.469225	0.123436	0.040086	-0.285938	-0.651215	-0.031916	-0.278535	-0.031915	0.728914	0.624568	
 2919	4.661825	14.059081	-1.141921	-0.594823	0.384093	-0.216069	-0.289406	-0.657317	-0.029824	-0.279969	-0.034405	0.724146	0.629322	
 2920	3.083460	10.861016	0.061002	0.172046	0.396352	-0.200577	-0.293101	-0.666906	-0.032876	-0.281452	-0.038877	0.724072	0.628484	
 2921	1.604769	9.851895	0.091100	-0.121365	0.313225	-0.184176	-0.295394	-0.674848	-0.035947	-0.282387	-0.042039	0.722439	0.629740	
 2922	2.509133	11.905514	-0.789503	0.368190	0.171162	-0.135093	-0.299949	-0.684515	-0.035448	-0.282553	-0.045176	0.724240	0.627374	
 2923	2.535359	11.978758	-1.095320	0.366632	-0.005899	-0.172144	-0.306309	-0.691292	-0.032215	-0.281005	-0.047660	0.726562	0.625198	
 2924	2.625823	11.869889	-1.608008	0.296983	-0.194419	-0.226894	-0.310591	-0.700057	-0.025805	-0.277968	-0.048971	0.728879	0.623756	
 2925	2.900463	11.985972	-2.000798	0.247346	-0.188437	-0.346954	-0.312895	-0.709488	-0.021015	-0.274013	-0.051282	0.730869	0.622990	
 2926	2.362455	11.188612	-1.710774	-0.046202	-0.252563	-0.471027	-0.316032	-0.719403	-0.017622	-0.269189	-0.053068	0.731050	0.624730	
 2927	1.967662	10.415837	-1.493000	-0.149514	-0.322882	-0.556245	-0.318296	-0.727654	-0.017356	-0.263102	-0.055016	0.730782	0.627462	
 2928	1.616766	9.302519	-1.226960	-0.281860	-0.297970	-0.571756	-0.317768	-0.738469	-0.017883	-0.257422	-0.056626	0.729492	0.631165	
 2929	1.431128	8.117425	-0.742035	-0.490660	-0.211125	-0.483732	-0.320624	-0.747827	-0.024886	-0.252754	-0.057884	0.726751	0.636080	
 2930	1.416672	7.039179	-0.231021	-0.344987	-0.167056	-0.318154	-0.324097	-0.758440	-0.028741	-0.249649	-0.058305	0.724814	0.639470	
 2931	1.613060	6.771829	-0.161538	-0.414903	-0.121614	-0.218413	-0.329712	-0.767807	-0.034452	-0.247264	-0.058405	0.722422	0.643083	
 2932	1.714884	6.498058	0.185716	-0.415833	-0.087708	-0.229308	-0.334354	-0.777623	-0.041309	-0.245331	-0.058511	0.719850	0.646687	
 2933	1.752746	6.554503	0.262357	-0.361811	-0.072729	-0.266993	-0.338207	-0.786905	-0.047707	-0.242954	-0.059400	0.717603	0.649993	
 2934	1.577708	6.452963	0.456305	-0.285223	-0.117180	-0.291999	-0.342878	-0.797624	-0.055248	-0.240317	-0.060084	0.715882	0.652802	
 2935	1.329780	6.593423	0.228578	-0.215304	-0.147907	-0.319685	-0.344764	-0.810385	-0.058231	-0.236969	-0.061212	0.714693	0.655219	
 2936	1.314412	6.890257	-0.020903	-0.139784	-0.163015	-0.282800	-0.347112	-0.824017	-0.060187	-0.233969	-0.061876	0.714014	0.656973	
 2937	1.452576	6.940531	-0.061912	-0.092209	-0.158139	-0.229275	-0.350372	-0.837656	-0.062470	-0.231060	-0.062582	0.713685	0.658293	
 2938	1.719709	7.445487	-0.254193	-0.042803	-0.165192	-0.177729	-0.352367	-0.850977	-0.065067	-0.228671	-0.062707	0.713698	0.659099	
 2939	1.861562	8.293918	-0.446535	0.048543	-0.183891	-0.154755	-0.354506	-0.866295	-0.065432	-0.225979	-0.063031	0.714391	0.659247	
 2940	1.991709	9.420812	-0.678042	0.124804	-0.148567	-0.151771	-0.355086	-0.882931	-0.065449	-0.223776	-0.063466	0.715478	0.658777	
 2941	1.714590	9.954776	-0.709922	0.139711	-0.139199	-0.102706	-0.356455	-0.898640	-0.063097	-0.221680	-0.063921	0.716700	0.658114	
 2942	1.891799	10.844284	-0.899820	0.252512	-0.085203	0.119031	-0.359877	-0.916006	-0.060902	-0.221647	-0.063136	0.718648	0.656073	
 2943	1.515513	10.565958	-0.725014	0.240754	-0.112563	0.384678	-0.368332	-0.929875	-0.056439	-0.222858	-0.060502	0.720775	0.653573	
 2944	4.028125	13.777961	-0.102747	0.730472	-0.112544	0.701481	-0.380090	-0.941341	-0.048411	-0.226183	-0.056462	0.726208	0.646742	
 2945	2.572535	13.996153	-2.352444	-0.081797	0.100975	0.587069	-0.399450	-0.954856	-0.035958	-0.230404	-0.052999	0.725844	0.645953	
 2946	3.347897	13.077189	-1.184156	0.692056	-0.125561	0.673022	-0.415755	-0.965987	-0.026479	-0.233381	-0.048923	0.730955	0.639410	
 2947	2.295899	11.834352	-0.454146	0.179604	-0.199125	0.610681	-0.432056	-0.977512	-0.019679	-0.235378	-0.043942	0.732925	0.636779	
 2948	2.216974	12.035456	-0.247112	0.123242	-0.045410	0.503644	-0.446660	-0.986889	-0.012070	-0.238128	-0.040297	0.734056	0.634691	
 2949	1.746453	11.939118	-0.125946	-0.113120	0.111840	0.347701	-0.460389	-0.998599	-0.010586	-0.240820	-0.038549	0.733263	0.634701	
 2950	1.679494	11.055370	0.577604	-0.052258	0.092043	0.353247	-0.468799	-1.007434	-0.007515	-0.243689	-0.036464	0.732869	0.634183	
 2951	1.773716	10.492436	0.387767	0.040926	0.139378	0.428315	-0.482790	-1.017543	-0.006024	-0.247014	-0.034697	0.732964	0.632886	
 2952	1.468098	9.843109	0.591431	0.128692	0.128961	0.442328	-0.495830	-1.026763	-0.000584	-0.250646	-0.032637	0.733633	0.630788	
 2953	1.141184	9.519695	0.399927	0.319774	0.120045	0.379895	-0.504893	-1.034691	0.007803	-0.253397	-0.031826	0.735463	0.627592	
 2954	0.933134	9.240021	0.122032	0.334640	0.095351	0.306974	-0.512924	-1.042474	0.019065	-0.255850	-0.031063	0.737439	0.624307	
 2955	0.973560	8.948924	-0.410501	0.335464	0.110008	0.338398	-0.519825	-1.049800	0.029871	-0.258216	-0.030565	0.739335	0.621107	
 2956	0.764398	8.420851	-0.725539	0.369136	0.086433	0.437079	-0.527580	-1.055864	0.041711	-0.261387	-0.028874	0.741554	0.617204	
 2957	1.085765	8.589559	-1.211524	0.440142	0.011633	0.538955	-0.535297	-1.060645	0.057179	-0.264178	-0.026586	0.744370	0.612712	
 2958	1.426795	8.785907	-1.503765	0.314204	-0.007570	0.505343	-0.546145	-1.062891	0.066204	-0.267064	-0.023659	0.746465	0.609022	
 2959	1.652078	9.026102	-1.778525	0.175272	-0.043323	0.491958	-0.553865	-1.066057	0.079024	-0.269169	-0.020707	0.747765	0.606603	
 2960	1.841452	8.886569	-1.758568	0.119351	-0.060233	0.461281	-0.560288	-1.070517	0.086563	-0.271423	-0.017266	0.748766	0.604467	
 2961	2.203955	8.472102	-1.537547	0.047603	-0.069033	0.414893	-0.566096	-1.074265	0.093618	-0.272857	-0.014408	0.749332	0.603194	
 2962	2.193861	8.243734	-1.376075	-0.076487	-0.049663	0.318950	-0.569241	-1.077498	0.097377	-0.274353	-0.011563	0.749077	0.602894	
 2963	2.498533	8.693538	-1.418160	-0.071203	0.017202	0.191004	-0.574000	-1.081890	0.099411	-0.275081	-0.010591	0.748655	0.603104	
 2964	2.658954	9.179033	-1.409201	-0.043611	0.101637	0.018970	-0.571926	-1.086542	0.102281	-0.275895	-0.010997	0.748142	0.603361	
 2965	2.093942	8.924885	-0.984740	0.071747	0.210615	-0.113759	-0.567437	-1.094577	0.104455	-0.276195	-0.013885	0.748013	0.603324	
 2966	2.346982	9.324678	-0.947941	0.101336	0.279503	-0.189987	-0.558190	-1.101957	0.104270	-0.277059	-0.017329	0.747850	0.603041	
 2967	2.009007	9.171143	-0.887443	0.179336	0.418524	-0.215681	-0.551301	-1.108419	0.105819	-0.278250	-0.022554	0.747754	0.602439	
 2968	2.136055	9.285718	-1.040458	0.279870	0.499860	-0.140426	-0.546328	-1.116020	0.110168	-0.281007	-0.027450	0.748031	0.600609	
 2969	3.146202	9.877685	-1.080178	0.486579	0.666116	0.036555	-0.543267	-1.118479	0.115138	-0.285446	-0.033146	0.749096	0.596889	
 2970	3.608044	10.419509	-1.579216	0.465711	0.767717	0.067366	-0.543369	-1.119856	0.118318	-0.291366	-0.038611	0.749703	0.592926	
 2971	3.131859	9.629445	-1.382688	0.501149	0.783572	0.013288	-0.542355	-1.121439	0.123437	-0.296484	-0.045218	0.750405	0.589020	
 2972	2.909727	9.411428	-1.387602	0.409864	0.727991	-0.047008	-0.541362	-1.124334	0.128001	-0.301406	-0.051132	0.750638	0.585732	
 2973	3.026516	9.564480	-1.554721	0.393100	0.691164	-0.068517	-0.538773	-1.125105	0.131229	-0.305341	-0.057486	0.750848	0.582829	
 2974	2.835241	9.219472	-1.538906	0.337264	0.664267	-0.047439	-0.536070	-1.127325	0.134042	-0.309782	-0.062803	0.750761	0.580043	
 2975	2.754475	9.017134	-1.527632	0.307841	0.531163	0.050473	-0.535569	-1.128110	0.136468	-0.313210	-0.067072	0.750976	0.577439	
 2976	3.139473	9.104801	-1.497813	0.211184	0.440681	0.164973	-0.538500	-1.128476	0.136809	-0.317258	-0.069102	0.750939	0.575033	
 2977	3.386692	8.815977	-1.402364	0.097697	0.359247	0.209468	-0.540780	-1.127233	0.137483	-0.320440	-0.070513	0.750563	0.573586	
 2978	3.585747	8.536362	-1.316218	0.047551	0.279088	0.191335	-0.545347	-1.126474	0.138537	-0.323527	-0.070894	0.750094	0.572419	
 2979	3.731615	8.584749	-1.254448	0.010449	0.188018	0.160253	-0.546446	-1.124019	0.137167	-0.325212	-0.071397	0.749724	0.571887	
 2980	4.033201	8.770980	-1.293095	-0.047150	0.077533	0.132654	-0.548987	-1.125447	0.137517	-0.326516	-0.070757	0.749317	0.571756	
 2981	3.961762	8.761408	-1.211524	-0.134634	-0.001885	0.083227	-0.549073	-1.128155	0.135467	-0.326458	-0.070260	0.748676	0.572689	
 2982	3.939994	8.935484	-1.184226	-0.165229	-0.088289	0.056858	-0.548744	-1.127950	0.134288	-0.326169	-0.068855	0.748078	0.573805	
 2983	3.876038	9.037730	-1.183414	-0.186541	-0.158122	0.028770	-0.547381	-1.127727	0.133310	-0.324681	-0.067688	0.747600	0.575409	
 2984	3.631179	8.913917	-1.118395	-0.257233	-0.233731	-0.005785	-0.544132	-1.130082	0.131346	-0.323002	-0.065617	0.746892	0.577509	
 2985	3.668714	8.980627	-1.077568	-0.232708	-0.334448	0.042516	-0.542842	-1.130580	0.128749	-0.320314	-0.063172	0.746699	0.579524	
 2986	3.748605	8.933649	-1.078167	-0.245597	-0.397820	0.059619	-0.541831	-1.133206	0.128240	-0.317770	-0.059701	0.746601	0.581416	
 2987	3.848313	8.697330	-1.060700	-0.281032	-0.391648	0.053123	-0.539103	-1.133296	0.126276	-0.314750	-0.056676	0.746276	0.583774	
 2988	3.920290	8.680058	-1.116108	-0.256825	-0.389696	0.033760	-0.537884	-1.133993	0.124874	-0.312110	-0.053408	0.746037	0.585802	
 2989	3.987184	8.817199	-1.232871	-0.238282	-0.358411	0.036701	-0.535403	-1.134379	0.125829	-0.309226	-0.050816	0.745809	0.587848	
 2990	3.936056	8.589369	-1.123820	-0.173074	-0.314899	0.041673	-0.534522	-1.135394	0.122664	-0.307136	-0.048187	0.745805	0.589170	
 2991	3.984307	8.575326	-1.112151	-0.190955	-0.245316	0.034668	-0.533464	-1.135925	0.120586	-0.305071	-0.046403	0.745480	0.590794	
 2992	4.055464	8.631001	-1.100226	-0.164013	-0.207565	0.025669	-0.533523	-1.136927	0.119231	-0.303677	-0.044554	0.745177	0.592036	
 2993	4.042652	8.703810	-1.032839	-0.135169	-0.180789	0.016642	-0.531102	-1.136045	0.118998	-0.301980	-0.043435	0.744962	0.593256	
 2994	3.997013	8.717056	-1.001481	-0.095069	-0.187882	-0.001785	-0.530045	-1.138177	0.116763	-0.300536	-0.042116	0.744986	0.594054	
 2995	3.977291	8.754918	-0.989242	-0.071813	-0.174909	-0.027502	-0.526434	-1.138105	0.117263	-0.298610	-0.041535	0.745099	0.594924	
 2996	3.980463	8.846791	-1.031825	-0.067249	-0.144622	-0.042079	-0.524315	-1.138781	0.115919	-0.297235	-0.040857	0.745135	0.595613	
 2997	3.853192	8.863931	-1.002474	-0.076617	-0.122638	-0.042829	-0.520845	-1.138698	0.116143	-0.295624	-0.040670	0.745048	0.596537	
 2998	3.859704	8.911676	-0.990301	-0.071031	-0.112504	-0.025239	-0.519580	-1.140113	0.115669	-0.294588	-0.040047	0.744969	0.597189	
 2999	3.793707	8.843396	-0.966445	-0.089661	-0.111682	-0.015080	-0.516084	-1.139114	0.113770	-0.293243	-0.039667	0.744774	0.598119	
 3000	3.771727	8.716072	-0.959830	-0.085936	-0.107993	-0.019655	-0.515141	-1.140064	0.111946	-0.292280	-0.038987	0.744591	0.598863	
 3001	3.810863	8.675303	-0.933911	-0.067315	-0.084029	0.003555	-0.514806	-1.139732	0.110903	-0.291259	-0.038684	0.744449	0.599556	
 3002	3.968697	8.710423	-0.922479	-0.078506	-0.070351	0.037689	-0.513762	-1.139848	0.108563	-0.290915	-0.037824	0.744221	0.600061	
 3003	4.187159	8.838492	-0.975401	-0.087856	-0.060350	0.058862	-0.512105	-1.139259	0.108411	-0.290432	-0.037171	0.743903	0.600730	
 3004	4.217861	8.727851	-0.933066	-0.071067	-0.069449	0.024687	-0.511705	-1.138854	0.106037	-0.290013	-0.036436	0.743710	0.601216	
 3005	4.285490	8.695285	-0.943101	-0.073901	-0.064911	-0.002989	-0.511793	-1.138490	0.104166	-0.289143	-0.036232	0.743462	0.601953	
 3006	4.429571	8.680504	-0.960559	-0.080490	-0.048485	-0.023251	-0.509826	-1.137942	0.102430	-0.288595	-0.035953	0.743132	0.602640	
 3007	4.477777	8.513274	-0.954462	-0.071176	-0.049376	-0.048169	-0.507239	-1.136943	0.097533	-0.287597	-0.036158	0.742837	0.603468	
 3008	4.477971	8.338904	-0.979274	-0.076791	-0.042085	-0.056431	-0.504684	-1.138066	0.097280	-0.286894	-0.036175	0.742497	0.604220	
 3009	4.693152	8.362016	-1.056635	-0.060083	-0.031043	-0.086877	-0.501749	-1.138095	0.094260	-0.285828	-0.036776	0.742201	0.605051	
 3010	4.603203	8.130970	-1.052641	-0.063872	-0.009977	-0.115311	-0.499285	-1.137783	0.092152	-0.285002	-0.037462	0.741823	0.605862	
 3011	4.715675	8.140004	-1.081791	-0.068657	0.032150	-0.133561	-0.496212	-1.137942	0.086601	-0.284161	-0.038732	0.741279	0.606842	
 3012	4.778371	8.098905	-1.149237	-0.071568	0.069711	-0.148126	-0.491424	-1.139055	0.084753	-0.283727	-0.040122	0.740611	0.607770	
 3013	4.740725	8.021367	-1.249900	-0.076318	0.105462	-0.133146	-0.486703	-1.138893	0.081585	-0.283472	-0.041773	0.739816	0.608745	
 3014	4.603585	7.592884	-1.220410	-0.061394	0.130349	-0.098788	-0.486863	-1.138706	0.075430	-0.283781	-0.043197	0.739053	0.609429	
 3015	4.649719	7.397351	-1.238362	-0.049234	0.134100	-0.052647	-0.483226	-1.137583	0.073810	-0.284254	-0.044463	0.738384	0.609928	
 3016	5.323823	7.961718	-1.413024	0.014155	0.121539	-0.013275	-0.481460	-1.137759	0.070446	-0.284984	-0.045415	0.738140	0.609812	
 3017	6.118118	8.794873	-1.668139	0.053222	0.105110	-0.033045	-0.482095	-1.135103	0.068040	-0.285369	-0.046596	0.738204	0.609466	
 3018	6.032352	8.730875	-1.754170	-0.000872	0.067133	-0.131997	-0.480439	-1.134513	0.067887	-0.284980	-0.048050	0.737967	0.609822	
 3019	5.985946	8.476381	-1.750491	-0.001786	0.034063	-0.213346	-0.477856	-1.135122	0.065505	-0.283820	-0.049913	0.737831	0.610377	
 3020	6.026683	8.445482	-1.863220	0.000841	0.077143	-0.264762	-0.470673	-1.135324	0.062890	-0.282691	-0.052413	0.737504	0.611087	
 3021	5.649975	8.112516	-1.961294	0.019380	0.121338	-0.272624	-0.465873	-1.134047	0.061480	-0.281850	-0.055249	0.737237	0.611547	
 3022	5.051172	7.376219	-1.644381	-0.032730	0.147760	-0.221526	-0.460913	-1.133993	0.057924	-0.281521	-0.057766	0.736516	0.612334	
 3023	4.749885	7.134810	-1.725581	-0.024335	0.179095	-0.136343	-0.458033	-1.132627	0.053853	-0.282002	-0.059784	0.735910	0.612648	
 3024	4.646755	6.998262	-1.661261	-0.120328	0.194158	-0.075433	-0.458821	-1.129135	0.048242	-0.282959	-0.061262	0.734599	0.613633	
 3025	4.728578	6.722917	-1.493268	-0.155628	0.193972	0.010288	-0.460239	-1.126729	0.040036	-0.284564	-0.061878	0.733249	0.614443	
 3026	4.914498	6.806077	-1.472148	-0.141785	0.272926	0.058663	-0.465736	-1.123257	0.032385	-0.286931	-0.062793	0.731655	0.615149	
 3027	5.076565	7.037311	-1.442986	-0.249024	0.272246	0.049247	-0.470549	-1.119937	0.022906	-0.289448	-0.063286	0.729538	0.616432	
 3028	5.269757	7.262362	-1.447471	-0.228619	0.309021	0.042949	-0.473902	-1.114221	0.011952	-0.292029	-0.064287	0.727278	0.617781	
 3029	5.441321	7.496331	-1.430293	-0.282778	0.326992	0.012482	-0.480031	-1.110087	-0.000940	-0.294777	-0.065230	0.724770	0.619323	
 3030	5.549335	7.826473	-1.345382	-0.302334	0.321370	0.025294	-0.486610	-1.106436	-0.012533	-0.297376	-0.066216	0.721981	0.621229	
 3031	5.991734	8.359754	-1.411564	-0.264137	0.327050	0.060232	-0.493054	-1.099708	-0.026476	-0.300444	-0.066812	0.719616	0.622433	
 3032	6.201384	8.750891	-1.448744	-0.318308	0.368904	0.101838	-0.498987	-1.091896	-0.040370	-0.303861	-0.067489	0.716608	0.624169	
 3033	6.295895	9.163271	-1.413564	-0.277237	0.361842	0.152531	-0.508001	-1.086710	-0.051829	-0.307795	-0.067541	0.714112	0.625095	
 3034	6.316607	9.712513	-1.315178	-0.282812	0.368276	0.199592	-0.519437	-1.078789	-0.065540	-0.311779	-0.067615	0.711360	0.626250	
 3035	5.907193	9.849375	-1.202648	-0.290082	0.310566	0.235383	-0.527330	-1.070065	-0.077409	-0.315891	-0.066667	0.708987	0.626982	
 3036	5.753874	10.243664	-0.872334	-0.194613	0.204854	0.307797	-0.540073	-1.061105	-0.086111	-0.319319	-0.065222	0.707343	0.627254	
 3037	6.522424	11.605845	-0.254201	-0.063606	0.060703	0.401778	-0.554149	-1.050132	-0.092998	-0.322565	-0.062214	0.707272	0.625977	
 3038	6.097771	12.035472	-1.923952	-0.291339	0.053028	0.557487	-0.570280	-1.039899	-0.094549	-0.326525	-0.057729	0.705635	0.626201	
 3039	7.062361	12.213117	-0.248701	0.316922	-0.310231	0.647897	-0.585552	-1.026262	-0.096663	-0.328462	-0.051887	0.709268	0.621578	
 3040	5.808746	11.634060	0.095859	-0.253094	-0.217279	0.386376	-0.601158	-1.013493	-0.097742	-0.329372	-0.047032	0.708626	0.622214	
 3041	4.933467	11.086191	0.912353	-0.171356	-0.156300	-0.047245	-0.612800	-1.006079	-0.099448	-0.328313	-0.045475	0.708311	0.623248	
 3042	5.925336	11.994644	1.094339	-0.272733	0.052845	-0.235625	-0.614137	-1.003361	-0.105907	-0.327261	-0.046642	0.706354	0.625930	
 3043	4.736549	11.395490	1.900012	-0.349484	0.161614	-0.532490	-0.604912	-1.001598	-0.116781	-0.325498	-0.049921	0.703591	0.629698	
 3044	3.831675	10.814429	2.431912	-0.281379	0.185105	-0.605676	-0.597976	-1.003786	-0.127592	-0.323041	-0.054497	0.700924	0.633545	
 3045	3.368261	10.474816	2.752656	-0.130947	0.115530	-0.539305	-0.589569	-1.005080	-0.134288	-0.320771	-0.058262	0.699564	0.635863	
 3046	2.758679	9.443023	2.860058	-0.000939	-0.011979	-0.515668	-0.584306	-1.007852	-0.142543	-0.317327	-0.061854	0.699314	0.637525	
 3047	2.456687	8.532385	2.454988	0.181309	-0.205291	-0.494351	-0.580774	-1.010517	-0.138481	-0.312890	-0.064283	0.700883	0.637755	
 3048	2.147679	7.535437	1.800817	0.226297	-0.340756	-0.488527	-0.576078	-1.013296	-0.134212	-0.307156	-0.066304	0.703090	0.637905	
 3049	1.888258	6.456254	1.217738	0.345048	-0.498694	-0.446797	-0.574612	-1.017090	-0.125088	-0.300822	-0.067053	0.706549	0.637023	
 3050	1.728859	5.714714	0.573779	0.357391	-0.617845	-0.397622	-0.571617	-1.021778	-0.113474	-0.293597	-0.067063	0.710419	0.636088	
 3051	1.688298	4.865592	0.363940	0.455649	-0.738300	-0.313342	-0.569852	-1.024698	-0.097904	-0.286294	-0.065678	0.715277	0.634114	
 3052	1.715219	4.742274	0.066672	0.463209	-0.774916	-0.229628	-0.571439	-1.029023	-0.082837	-0.278902	-0.063793	0.720276	0.631938	
 3053	2.213894	5.042304	-0.541381	0.452889	-0.805349	-0.204218	-0.574824	-1.031656	-0.067726	-0.271762	-0.061195	0.725260	0.629602	
 3054	1.957750	4.317925	-0.266587	0.440344	-0.953016	-0.137650	-0.577444	-1.036132	-0.052862	-0.263623	-0.057450	0.730523	0.627326	
 3055	2.184473	5.130287	-0.899481	0.503677	-1.008628	-0.148181	-0.578812	-1.038028	-0.032934	-0.255273	-0.053297	0.736260	0.624433	
 3056	2.431273	5.134053	-0.948388	0.479480	-1.034510	-0.149386	-0.579789	-1.044869	-0.010516	-0.246377	-0.049221	0.741792	0.621788	
 3057	2.904143	5.634421	-1.277911	0.484984	-1.043745	-0.154257	-0.580912	-1.049148	0.008991	-0.237683	-0.044833	0.747323	0.618874	
 3058	3.325485	6.154152	-1.274723	0.473664	-0.989752	-0.123688	-0.581790	-1.053541	0.028245	-0.229222	-0.040819	0.752532	0.616025	
 3059	3.541740	6.680765	-1.502533	0.527653	-0.944455	-0.015537	-0.583539	-1.056919	0.048126	-0.222076	-0.036080	0.757984	0.612242	
 3060	4.861698	8.359778	-1.961283	0.740118	-0.935990	0.108699	-0.587191	-1.059312	0.071240	-0.215293	-0.031232	0.764605	0.606674	
 3061	6.084245	10.336608	-2.769575	0.717261	-0.828068	0.192704	-0.590746	-1.061013	0.096509	-0.210231	-0.026000	0.770857	0.600754	
 3062	6.830354	10.994187	-3.140158	0.593939	-0.727083	0.321060	-0.597082	-1.061208	0.117212	-0.206321	-0.020469	0.776026	0.595647	
 3063	7.615929	12.081363	-3.905649	0.509437	-0.513954	0.485145	-0.610215	-1.057567	0.135398	-0.205523	-0.014363	0.780317	0.590475	
 3064	6.764796	11.993539	-3.581877	0.232716	-0.166926	0.467889	-0.623662	-1.056773	0.143900	-0.206877	-0.010268	0.782117	0.587698	
 3065	7.556668	12.959560	-3.398702	0.650192	-0.056257	0.521258	-0.638106	-1.053635	0.153175	-0.209900	-0.006834	0.786206	0.581185	
 3066	8.106368	15.493687	-5.688462	0.621445	-0.031817	0.453703	-0.652749	-1.047252	0.169434	-0.212172	-0.004450	0.789920	0.575317	
 3067	6.389331	13.494149	-3.993325	0.366141	-0.034148	0.071377	-0.664390	-1.046535	0.172706	-0.212800	-0.004078	0.792231	0.571900	
 3068	3.217197	11.881958	-3.877472	0.103346	-0.165575	-0.285357	-0.668350	-1.051627	0.180795	-0.209785	-0.005673	0.793186	0.571677	
 3069	1.293849	10.190123	-3.734127	0.277072	-0.331247	-0.540848	-0.661893	-1.061674	0.186539	-0.204479	-0.008318	0.795566	0.570258	
 3070	1.163892	9.344454	-3.553779	0.450096	-0.515455	-0.523231	-0.655404	-1.069775	0.198594	-0.197287	-0.010526	0.799140	0.567752	
 3071	1.913885	9.976366	-4.206678	0.637730	-0.648319	-0.407922	-0.645331	-1.078976	0.210461	-0.190077	-0.011090	0.804130	0.563136	
 3072	2.030627	9.495901	-4.436841	0.510790	-0.579403	-0.351431	-0.638330	-1.086283	0.228040	-0.183315	-0.011690	0.808066	0.559721	
 3073	1.889607	8.723332	-4.327804	0.402523	-0.449739	-0.216954	-0.639361	-1.088650	0.246913	-0.178731	-0.011432	0.811300	0.556522	
 3074	1.767099	8.036878	-4.077324	0.263676	-0.399147	-0.106047	-0.638029	-1.093920	0.258545	-0.174806	-0.010602	0.813486	0.554591	
 3075	1.757514	7.605909	-3.967113	0.160192	-0.359394	-0.045031	-0.641286	-1.097184	0.265370	-0.171888	-0.009052	0.815211	0.552995	
 3076	1.910202	6.981309	-3.655371	-0.043033	-0.314789	-0.005370	-0.642919	-1.103673	0.265569	-0.169235	-0.007344	0.815536	0.553359	
 3077	2.134129	6.515914	-3.484209	-0.214928	-0.119578	0.057324	-0.646974	-1.107293	0.263518	-0.168844	-0.005659	0.814787	0.554600	
 3078	2.049729	5.871446	-3.152381	-0.386786	0.083957	0.127581	-0.654744	-1.110339	0.258832	-0.170193	-0.004490	0.812528	0.557505	
 3079	1.850226	5.230073	-2.800892	-0.504359	0.185099	0.156750	-0.664305	-1.114872	0.245858	-0.172830	-0.003199	0.809646	0.560885	
 3080	1.855188	4.994791	-2.519962	-0.506215	0.230972	0.200385	-0.675312	-1.120193	0.229305	-0.175777	-0.002057	0.806429	0.564598	
 3081	1.978022	5.120562	-2.510297	-0.538802	0.218846	0.227898	-0.686121	-1.125565	0.208756	-0.179065	-0.000313	0.803252	0.568087	
 3082	2.344211	5.389161	-2.309685	-0.647943	0.256653	0.238923	-0.697666	-1.130461	0.188968	-0.182423	0.001246	0.799120	0.572824	
 3083	2.705536	5.856654	-2.490623	-0.508281	0.329921	0.290088	-0.707742	-1.132603	0.176130	-0.186941	0.002808	0.795851	0.575904	
 3084	2.766923	6.127033	-2.314945	-0.554951	0.355314	0.272636	-0.719957	-1.137896	0.158431	-0.191258	0.003911	0.791994	0.579785	
 3085	2.984022	7.013676	-2.705898	-0.443065	0.317475	0.328690	-0.732423	-1.140932	0.141017	-0.195887	0.005737	0.789061	0.582219	
 3086	3.292872	7.989342	-3.187670	-0.396623	0.351688	0.403506	-0.747078	-1.144549	0.123320	-0.200928	0.007588	0.786054	0.584542	
 3087	3.783329	9.082256	-3.430526	-0.430083	0.326755	0.588504	-0.763625	-1.141712	0.106800	-0.207119	0.011392	0.783098	0.586285	
 3088	3.748532	9.970738	-3.817954	-0.433513	0.220485	0.795403	-0.783931	-1.138817	0.094850	-0.213393	0.017166	0.780008	0.588010	
 3089	4.134051	10.807436	-3.753193	-0.388449	0.119893	0.919214	-0.810750	-1.132911	0.080923	-0.219848	0.024679	0.777573	0.588590	
 3090	5.003020	12.204126	-4.122908	-0.328485	-0.064221	0.955617	-0.839875	-1.122950	0.072788	-0.224826	0.033148	0.775540	0.588976	
 3091	4.915795	12.142904	-3.481985	-0.675228	-0.089277	0.843523	-0.865118	-1.111304	0.060117	-0.229024	0.041945	0.771754	0.591763	
 3092	6.264259	13.403128	-2.821533	-0.678803	-0.151909	0.786328	-0.891269	-1.104198	0.044113	-0.232151	0.050407	0.767751	0.595083	
 3093	5.638620	14.385741	-4.595143	-0.986627	-0.311476	0.712351	-0.915231	-1.094151	0.039518	-0.233606	0.060216	0.762513	0.600313	
 3094	4.100985	9.995588	-0.165602	-1.050631	-0.400618	0.499494	-0.932785	-1.088792	0.015354	-0.232842	0.068826	0.756823	0.606850	
 3095	6.523040	12.072855	-0.624829	-1.472898	-0.164266	0.463423	-0.951336	-1.081625	-0.008045	-0.233488	0.076944	0.748151	0.616306	
 3096	6.943989	11.402306	0.991089	-1.493800	0.149201	0.407038	-0.970928	-1.072155	-0.042567	-0.235876	0.082499	0.738235	0.626551	
 3097	6.814426	11.502288	1.319781	-1.302184	0.306229	0.232063	-0.985959	-1.066651	-0.075787	-0.238649	0.085568	0.729319	0.635467	
 3098	6.335626	10.498593	1.787820	-1.389759	0.290102	0.083583	-0.992901	-1.062936	-0.111587	-0.240025	0.087594	0.719694	0.645566	
 3099	5.883573	9.232393	1.972222	-1.423450	0.364200	0.007635	-1.000262	-1.057447	-0.150729	-0.241609	0.088931	0.709704	0.655771	
 3100	4.841464	7.492738	2.137689	-1.161528	0.427352	-0.077949	-1.007136	-1.053807	-0.185056	-0.243022	0.088329	0.701115	0.664512	
 3101	3.928222	6.352518	2.097632	-0.860075	0.283430	-0.196152	-1.011221	-1.052492	-0.212023	-0.243145	0.087392	0.694952	0.671033	
 3102	3.152045	5.596051	1.862860	-0.572538	0.110094	-0.239896	-1.014138	-1.053864	-0.230671	-0.241738	0.086331	0.691083	0.675658	
 3103	2.891671	5.228534	1.388665	-0.335607	0.009717	-0.290865	-1.014897	-1.057990	-0.241738	-0.239764	0.085296	0.689096	0.678517	
 3104	2.620022	4.546876	1.051594	-0.208513	-0.130742	-0.294215	-1.016757	-1.061960	-0.246192	-0.236629	0.084611	0.688285	0.680523	
 3105	2.548042	4.018546	0.831592	-0.077894	-0.162963	-0.261945	-1.020185	-1.067561	-0.245961	-0.233880	0.084330	0.688399	0.681392	
 3106	2.588963	4.045761	0.436996	-0.011568	-0.237765	-0.214379	-1.023548	-1.073267	-0.236106	-0.230712	0.084460	0.689098	0.681750	
 3107	2.554148	3.941819	0.340967	0.131366	-0.324890	-0.113258	-1.029863	-1.079437	-0.229120	-0.228040	0.085822	0.690869	0.680686	
 3108	2.748124	4.495623	0.056007	0.172463	-0.379677	-0.068436	-1.038291	-1.083592	-0.223308	-0.225042	0.087495	0.693006	0.679297	
 3109	3.257850	4.871153	0.012624	0.173544	-0.446701	-0.035841	-1.046255	-1.085833	-0.212895	-0.222090	0.090124	0.695251	0.677628	
 3110	3.974270	5.540610	0.003309	0.241593	-0.455577	-0.021362	-1.057059	-1.090018	-0.197616	-0.218937	0.092482	0.697954	0.675554	
 3111	4.276906	6.462571	0.068880	0.319884	-0.463388	-0.029759	-1.067557	-1.096274	-0.175934	-0.216053	0.094950	0.701184	0.672790	
 3112	5.378407	7.235127	0.158809	0.497224	-0.534014	0.035052	-1.078037	-1.098936	-0.156335	-0.212955	0.097671	0.705675	0.668681	
 3113	5.852586	8.488228	0.045978	0.534546	-0.553971	0.124233	-1.088764	-1.100947	-0.136475	-0.210689	0.101379	0.710315	0.663916	
 3114	5.545249	8.630056	0.459372	0.497655	-0.646680	0.235389	-1.103238	-1.100779	-0.111612	-0.208104	0.106247	0.714762	0.659181	
 3115	6.305868	10.187246	0.024013	0.537864	-0.734538	0.350789	-1.122339	-1.095391	-0.083896	-0.206054	0.112747	0.719440	0.653633	
 3116	8.257135	12.110381	-0.048919	0.716013	-0.839294	0.314484	-1.139308	-1.092597	-0.049132	-0.202813	0.118969	0.725490	0.646820	
 3117	9.841931	15.578313	-2.577612	0.608850	-0.779687	0.360988	-1.157760	-1.082451	-0.007139	-0.200573	0.125687	0.730550	0.640523	
 3118	7.158712	12.702580	-1.107451	0.407351	-0.631070	0.053817	-1.171283	-1.077100	0.016526	-0.196758	0.129265	0.734379	0.636604	
 3119	4.088901	11.464448	-0.951868	0.384761	-0.668483	-0.433122	-1.175416	-1.080344	0.040265	-0.189927	0.129844	0.738683	0.633573	
 3120	4.399151	12.534346	-1.849234	0.459507	-1.000332	-0.823526	-1.168411	-1.093327	0.073927	-0.177849	0.129173	0.744536	0.630358	
 3121	5.360178	13.204806	-2.388097	0.377286	-1.087372	-1.048704	-1.149525	-1.112908	0.111728	-0.163909	0.127757	0.750142	0.627773	
 3122	5.750562	12.009340	-2.391217	0.472578	-0.778803	-1.142833	-1.127901	-1.130979	0.145184	-0.151427	0.123249	0.755805	0.625011	
 3123	5.579671	9.607714	-2.283266	0.653186	-0.214643	-1.201888	-1.109657	-1.151857	0.169162	-0.143400	0.114733	0.761662	0.621404	
 3124	5.221190	8.399348	-2.933523	1.003930	0.462505	-1.253589	-1.088744	-1.168745	0.187491	-0.140212	0.100822	0.768607	0.615970	
 3125	5.336503	7.001999	-3.438613	1.278215	1.190497	-1.220394	-1.071002	-1.184255	0.198421	-0.143469	0.082553	0.775926	0.608721	
 3126	5.174983	5.185837	-4.002014	1.596700	2.169199	-1.168936	-1.052640	-1.201138	0.195072	-0.154382	0.057929	0.783196	0.599511	
 3127	4.137022	3.882128	-4.582775	2.029014	3.139672	-1.030345	-1.045751	-1.210884	0.182675	-0.174279	0.028180	0.790604	0.586325	
 3128	3.402903	3.635880	-5.417696	2.267805	3.904440	-0.832461	-1.046391	-1.215642	0.165861	-0.200635	-0.005272	0.796525	0.570321	
 3129	1.785846	4.165201	-5.756868	2.488802	4.359362	-0.575200	-1.052692	-1.216614	0.137916	-0.232102	-0.039357	0.801042	0.550373	
 3130	1.819417	5.108284	-5.704334	2.239954	4.398383	-0.322526	-1.062418	-1.213148	0.102868	-0.264297	-0.071296	0.802084	0.530778	
 3131	2.035751	4.317056	-5.159394	1.930242	4.610260	-0.134416	-1.074361	-1.207231	0.050745	-0.299230	-0.101523	0.799188	0.511324	
 3132	1.590094	4.695677	-4.811117	1.955787	4.521634	-0.022194	-1.084580	-1.201188	-0.002869	-0.332808	-0.130556	0.794699	0.490558	
 3133	2.002886	5.456899	-4.292532	1.788342	4.403207	0.021949	-1.089552	-1.197819	-0.051376	-0.365530	-0.157471	0.788091	0.469578	
 3134	1.160304	6.040682	-4.013162	1.323176	3.966750	-0.011265	-1.091185	-1.196471	-0.108117	-0.394252	-0.180905	0.779131	0.452541	
 3135	1.659539	6.676157	-3.380833	1.330285	3.351298	-0.030797	-1.087981	-1.194854	-0.157328	-0.417844	-0.201174	0.771502	0.435568	
 3136	2.698886	7.609567	-3.222843	1.094492	2.878235	-0.073973	-1.083858	-1.192447	-0.203261	-0.437263	-0.218798	0.763754	0.421436	
 3137	3.873796	9.261466	-2.980455	0.985496	2.424325	-0.050544	-1.077427	-1.193080	-0.241208	-0.453509	-0.233408	0.757035	0.408349	
 3138	4.254402	9.877368	-2.646600	0.908342	1.934950	-0.060155	-1.071375	-1.195388	-0.265440	-0.465632	-0.245878	0.751676	0.397133	
 3139	4.851447	10.692189	-2.563766	0.915183	1.368978	-0.099744	-1.064802	-1.196788	-0.281208	-0.473439	-0.256102	0.748653	0.387021	
 3140	4.894573	11.144251	-3.128351	0.849481	1.096170	-0.084879	-1.061103	-1.198370	-0.289947	-0.479042	-0.265027	0.746480	0.378216	
 3141	4.901751	11.464315	-2.579142	0.780766	0.643651	-0.023071	-1.059716	-1.196828	-0.293042	-0.481860	-0.271213	0.746285	0.370557	
 3142	10.841822	16.085484	-7.682346	0.931685	1.003937	0.322512	-1.066486	-1.189461	-0.283746	-0.487919	-0.277037	0.745719	0.359290	
 3143	4.038801	10.418569	-0.775300	-0.287112	-0.167812	0.129990	-1.067118	-1.180303	-0.310242	-0.488095	-0.273940	0.745887	0.361072	
 3144	4.557934	11.410228	-3.957625	-0.144244	0.134497	-0.065771	-1.072483	-1.171782	-0.311929	-0.489204	-0.274266	0.744544	0.362095	
 3145	5.853003	11.036773	-2.697980	-0.084040	0.412507	-0.108810	-1.067250	-1.164198	-0.330990	-0.492234	-0.276073	0.741930	0.361981	
 3146	4.835548	11.315186	-1.838334	0.203385	0.351174	-0.197897	-1.062585	-1.157636	-0.351305	-0.493505	-0.279863	0.740399	0.360469	
 3147	4.146396	11.765957	-2.024233	-0.423211	0.247417	-0.437853	-1.051469	-1.155897	-0.368337	-0.495037	-0.281863	0.736382	0.365010	
 3148	3.692922	10.820676	-1.589484	0.060156	0.158729	-0.403501	-1.036274	-1.159539	-0.375300	-0.494508	-0.285764	0.734687	0.366109	
 3149	3.222526	10.717410	-1.980077	-0.201065	0.168194	-0.465356	-1.024861	-1.159606	-0.383388	-0.494677	-0.288809	0.731712	0.369434	
 3150	2.522614	9.591094	-1.494944	-0.103534	0.006573	-0.457590	-1.011658	-1.160554	-0.391641	-0.493277	-0.291720	0.729983	0.372428	
 3151	2.390502	8.904877	-1.760925	0.025404	-0.101774	-0.416525	-1.002347	-1.160241	-0.395315	-0.490935	-0.294558	0.729261	0.374696	
 3152	1.945860	7.667185	-1.435327	0.124697	-0.190929	-0.299586	-0.994207	-1.160484	-0.396667	-0.487998	-0.296692	0.729793	0.375812	
 3153	2.059397	7.176312	-1.873567	-0.018947	-0.158787	-0.200905	-0.990181	-1.157386	-0.389815	-0.486134	-0.297556	0.729787	0.377551	
 3154	1.963832	6.332383	-1.514022	-0.299035	-0.314527	-0.124596	-0.986762	-1.151764	-0.392986	-0.484202	-0.295874	0.729824	0.381267	
 3155	2.076679	5.658688	-1.164095	-0.286630	-0.340099	-0.002999	-0.986765	-1.144264	-0.397953	-0.482529	-0.293313	0.730242	0.384552	
 3156	1.460911	5.820530	-0.978778	-0.295728	-0.402353	0.042073	-0.992552	-1.134110	-0.400312	-0.480563	-0.290081	0.731175	0.387679	
 3157	0.893433	5.627388	-0.365085	-0.526091	-0.693421	0.081845	-1.000763	-1.122822	-0.405080	-0.477280	-0.284383	0.732534	0.393349	
 3158	0.365952	5.514552	-0.167230	-0.465390	-1.090046	0.136042	-1.005702	-1.111153	-0.400147	-0.471070	-0.276912	0.736256	0.399174	
 3159	0.276692	5.829009	-0.256078	-0.630032	-1.651383	0.192505	-1.022587	-1.098487	-0.384740	-0.461298	-0.266047	0.741759	0.407698	
 3160	0.111607	5.586332	0.059051	-0.830273	-2.085432	0.257116	-1.041800	-1.081999	-0.366754	-0.448921	-0.251795	0.748503	0.418106	
 3161	1.444473	6.504136	-0.166947	-0.859385	-2.392122	0.397671	-1.071924	-1.062627	-0.337933	-0.434645	-0.235048	0.756184	0.428978	
 3162	3.099089	7.527776	0.024629	-0.775009	-2.552341	0.533569	-1.100877	-1.040719	-0.305793	-0.419246	-0.216662	0.764944	0.438350	
 3163	3.520937	8.102127	-0.196680	-0.731830	-2.652037	0.692416	-1.128525	-1.017877	-0.270348	-0.403414	-0.196740	0.773787	0.446994	
 3164	4.346404	8.764308	-0.510205	-0.593339	-2.869579	0.811758	-1.160878	-0.991645	-0.222861	-0.385777	-0.175208	0.783966	0.453734	
 3165	5.625729	10.395040	-1.098148	-0.326639	-2.943334	0.926355	-1.192711	-0.961834	-0.166736	-0.367365	-0.153372	0.794791	0.458069	
 3166	4.420196	10.409589	-1.327031	-0.283593	-3.039150	0.894031	-1.221425	-0.933078	-0.104280	-0.347513	-0.131280	0.805643	0.461454	
 3167	9.959014	14.827758	-2.089409	0.466041	-3.139115	1.167727	-1.246684	-0.900273	-0.027912	-0.326973	-0.109020	0.819443	0.457948	
 3168	6.478804	14.148857	-4.231865	-0.319091	-2.938813	1.018134	-1.267360	-0.869155	0.042177	-0.307702	-0.086177	0.828319	0.460196	
 3169	2.181808	10.730658	-3.912258	0.072909	-3.514590	0.662744	-1.274625	-0.843930	0.119052	-0.281550	-0.064771	0.839180	0.460772	
 3170	0.452974	8.404792	-4.810842	0.737396	-3.054551	0.536875	-1.273571	-0.822104	0.203626	-0.257738	-0.048292	0.851116	0.454797	
 3171	1.186021	9.278875	-6.234784	0.453491	-3.706568	0.824735	-1.260020	-0.794039	0.298315	-0.229620	-0.025657	0.862225	0.450760	
 3172	2.179214	10.030077	-7.839862	0.495516	-3.512116	0.824553	-1.247270	-0.764090	0.392445	-0.202750	-0.003897	0.872179	0.445174	
 3173	1.815349	9.615182	-8.029282	0.446681	-3.428067	0.669258	-1.233749	-0.739697	0.477991	-0.175700	0.016195	0.880375	0.440235	
 3174	2.120181	9.794276	-8.940779	-0.186525	-3.852962	0.716606	-1.206207	-0.714993	0.567381	-0.144751	0.039720	0.885550	0.439626	
 3175	2.889744	8.290455	-7.878301	0.042886	-3.303222	0.806583	-1.170966	-0.691917	0.645883	-0.118960	0.061214	0.889500	0.436910	
 3176	2.709550	7.657526	-6.957743	-0.298035	-2.942957	0.801079	-1.131462	-0.673504	0.708287	-0.096016	0.081473	0.890815	0.436568	
 3177	2.341963	7.303377	-6.197516	-0.313140	-2.805415	0.734721	-1.100329	-0.656050	0.764260	-0.073927	0.100474	0.890996	0.436539	
 3178	1.699696	6.928453	-5.766159	-0.671591	-2.972543	0.737297	-1.067021	-0.642526	0.817108	-0.049924	0.120416	0.889109	0.438739	
 3179	2.025289	6.194397	-5.264454	-0.584287	-2.385128	0.678059	-1.031748	-0.632691	0.859604	-0.030977	0.137128	0.886472	0.440912	
 3180	1.694017	5.447101	-4.714451	-0.828044	-2.509402	0.755618	-0.996805	-0.625831	0.894819	-0.010888	0.155050	0.882256	0.444370	
 3181	1.612788	4.982604	-4.647136	-0.634348	-2.374295	0.792655	-0.960155	-0.620283	0.925314	0.007490	0.172598	0.878025	0.446348	
 3182	1.462468	4.946329	-4.594045	-0.722110	-2.300479	0.834569	-0.924440	-0.612460	0.957921	0.025235	0.190039	0.872933	0.448593	
 3183	1.488157	5.292052	-4.621073	-0.868808	-2.178464	0.829581	-0.891917	-0.604592	0.988052	0.042109	0.206782	0.866505	0.452368	
 3184	0.878951	4.831734	-4.587247	-0.633120	-2.045725	0.899149	-0.861844	-0.598354	1.012256	0.057096	0.223467	0.860717	0.453837	
 3185	0.511792	5.198335	-4.937621	-0.902593	-2.066524	0.933911	-0.830786	-0.592043	1.035588	0.072568	0.240318	0.852985	0.457600	
 3186	-0.379007	5.367770	-5.061897	-0.878182	-2.511880	1.033111	-0.794657	-0.591406	1.057292	0.091371	0.259846	0.844348	0.459573	
 3187	-0.216336	6.232926	-5.364243	-1.203094	-2.750465	1.090276	-0.750393	-0.591563	1.082979	0.112595	0.280471	0.832960	0.463505	
 3188	0.209808	6.894796	-5.400996	-0.865883	-2.265171	1.019560	-0.710994	-0.591045	1.106093	0.129153	0.298356	0.823283	0.465305	
 3189	0.255258	7.883780	-5.735658	-1.254292	-2.856292	1.108731	-0.664076	-0.593747	1.128038	0.151110	0.319005	0.809937	0.468406	
 3190	0.601734	8.163202	-5.611421	-1.160974	-2.876863	1.135320	-0.610508	-0.601592	1.149264	0.172732	0.339708	0.796129	0.470043	
 3191	0.039976	8.902767	-5.294243	-1.242344	-3.136736	1.177263	-0.552841	-0.610769	1.164855	0.196202	0.361482	0.780318	0.471105	
 3192	1.155995	10.730514	-5.263505	-0.785370	-3.205633	1.236836	-0.497175	-0.617520	1.181689	0.218116	0.384426	0.765420	0.467733	
 3193	1.414544	14.462574	-7.868609	-0.842252	-3.255690	0.943823	-0.429778	-0.605511	1.209709	0.241620	0.404849	0.750236	0.463533	
 3194	2.042110	13.555775	-5.427465	-0.593097	-3.466075	1.015549	-0.357157	-0.618098	1.221398	0.265165	0.426795	0.734544	0.456047	
 3195	3.828088	15.176255	-5.429481	-0.897341	-2.991303	1.013594	-0.289584	-0.622747	1.229941	0.286046	0.445364	0.717706	0.452467	
 3196	3.949413	15.645790	-5.111961	-0.911694	-2.812531	1.020128	-0.231845	-0.628601	1.230887	0.305551	0.462562	0.700684	0.449128	
 3197	2.868435	14.073233	-2.946393	-1.297471	-2.305649	0.903328	-0.185426	-0.652423	1.218546	0.323337	0.475251	0.683192	0.450376	
 3198	2.120339	13.666428	-2.165608	-0.943844	-2.321667	0.915029	-0.135297	-0.669475	1.209350	0.339464	0.488721	0.666883	0.448534	
 3199	1.585589	12.770928	-1.503072	-1.180642	-2.292800	0.794351	-0.088691	-0.688943	1.195883	0.356657	0.500289	0.649434	0.448042	
 3200	0.677723	10.486546	-0.083225	-0.937592	-2.392088	0.734520	-0.042515	-0.711431	1.178469	0.373479	0.512238	0.632838	0.444569	
 3201	0.217487	9.799265	-0.240141	-1.065811	-2.622156	0.630813	-0.002371	-0.731659	1.158296	0.392432	0.523862	0.614506	0.440396	
 3202	0.200696	8.685041	-0.351021	-1.240825	-2.769160	0.514461	0.051268	-0.755548	1.133188	0.413499	0.534078	0.595243	0.435276	
 3203	0.281532	7.421331	-0.601798	-1.053358	-2.771741	0.557067	0.115082	-0.774290	1.112285	0.432889	0.545037	0.575616	0.429195	
 3204	0.673835	6.658886	-1.324846	-0.801153	-2.650241	0.485953	0.165804	-0.792151	1.088282	0.450268	0.555521	0.557867	0.421236	
 3205	1.023362	5.163002	-0.800870	-0.468942	-2.637255	0.616360	0.213383	-0.805617	1.063208	0.464676	0.567949	0.540035	0.412155	
 3206	1.917883	6.424280	-2.833301	-0.141985	-2.710667	0.674879	0.257153	-0.808038	1.045270	0.477168	0.581874	0.522854	0.400447	
 3207	2.047755	5.045775	-1.693194	-0.227438	-1.954614	0.556603	0.290899	-0.813100	1.026515	0.486172	0.591660	0.508918	0.393165	
 3208	1.894109	5.186684	-1.763518	-0.158201	-1.689126	0.499283	0.323190	-0.814179	1.015342	0.493683	0.599983	0.497080	0.386276	
 3209	2.123763	5.092294	-1.700467	-0.052459	-1.466607	0.446211	0.347479	-0.817281	1.002824	0.499246	0.607831	0.486540	0.380228	
 3210	2.314323	5.347484	-1.654570	-0.001178	-1.104089	0.355180	0.365571	-0.818641	0.992206	0.503259	0.613716	0.478859	0.375203	
 3211	2.230539	6.119447	-1.616741	0.177379	-0.942483	0.298250	0.372836	-0.814372	0.986188	0.505239	0.619870	0.472546	0.370399	
 3212	2.696847	7.259987	-1.734899	0.432623	-0.874942	0.323630	0.386598	-0.807504	0.985035	0.505480	0.626795	0.467729	0.364482	
 3213	3.536916	9.509445	-2.375084	0.579322	-0.742114	0.290056	0.405428	-0.796850	0.988406	0.503892	0.634116	0.463833	0.358956	
 3214	3.274764	10.379577	-2.192479	0.386783	-0.571716	0.216237	0.414753	-0.786697	0.991293	0.503331	0.639123	0.460963	0.354532	
 3215	2.683538	11.455199	-1.930827	0.593892	-0.620729	0.215484	0.424131	-0.777671	0.995236	0.501245	0.645661	0.458088	0.349328	
 3216	2.767771	13.336201	-2.294544	0.558378	-0.696160	0.134669	0.430102	-0.764658	1.000622	0.500355	0.651487	0.455688	0.342868	
 3217	2.353855	15.547201	-2.926936	1.269095	-0.900804	0.159261	0.444208	-0.746955	1.007670	0.495213	0.661952	0.453942	0.332447	
 3218	1.752743	17.680291	-4.352782	0.322886	-1.256909	-0.105713	0.471971	-0.728399	1.008123	0.499109	0.667202	0.449471	0.322036	
 3219	-2.563897	11.149247	-0.603363	-0.386868	-0.949364	0.101157	0.493005	-0.734066	0.994289	0.505283	0.669098	0.442297	0.318387	
 3220	-5.185896	8.549350	0.509261	0.087662	-1.372223	0.544921	0.507293	-0.742495	0.978512	0.508992	0.676252	0.431972	0.311465	
 3221	-2.656432	12.241242	-1.893370	0.354790	-1.936120	0.462296	0.533314	-0.737202	0.965294	0.513179	0.686215	0.419584	0.299508	
 3222	-1.352801	12.601357	-2.531011	0.129171	-2.105744	0.243710	0.566465	-0.736449	0.945251	0.520286	0.694045	0.407444	0.285644	
 3223	-1.074230	11.838948	-2.949865	-0.045549	-2.000557	0.172079	0.598797	-0.739654	0.921088	0.527946	0.700332	0.395237	0.273123	
 3224	-0.259237	10.907490	-3.101777	0.059206	-1.687302	0.301035	0.625981	-0.742708	0.896464	0.533308	0.706340	0.384357	0.262556	
 3225	0.166130	10.715228	-3.064016	-0.135157	-1.426158	0.485767	0.644086	-0.749255	0.877485	0.538191	0.711400	0.372539	0.255883	
 3226	0.553261	10.526487	-2.983024	-0.159888	-1.133708	0.670892	0.655575	-0.758827	0.856566	0.541796	0.715880	0.361253	0.251932	
 3227	0.768712	9.497229	-2.391482	-0.303696	-0.919046	0.772501	0.658169	-0.773799	0.836868	0.545081	0.719535	0.349557	0.250930	
 3228	1.024140	8.543855	-2.234930	-0.264696	-0.803313	0.799899	0.658220	-0.789417	0.823010	0.547756	0.722859	0.338768	0.250351	
 3229	1.332918	7.699421	-2.106751	-0.348983	-0.644373	0.718547	0.655711	-0.804574	0.809262	0.550405	0.725207	0.328742	0.251111	
 3230	1.500933	7.288051	-1.913540	-0.280199	-0.569772	0.605553	0.651518	-0.819490	0.795142	0.552775	0.727062	0.320533	0.251157	
 3231	1.616551	7.258204	-1.911819	-0.241196	-0.541185	0.505175	0.646297	-0.831638	0.783936	0.554742	0.728940	0.312823	0.251098	
 3232	1.494921	7.369227	-1.903530	-0.223574	-0.523653	0.450001	0.643799	-0.843482	0.773445	0.556870	0.730405	0.306107	0.250406	
 3233	1.466245	7.370740	-1.874699	-0.237591	-0.519162	0.420507	0.644023	-0.852217	0.763843	0.558887	0.731907	0.299097	0.249996	
 3234	1.243929	7.060844	-1.710309	-0.230997	-0.530096	0.403946	0.644593	-0.862233	0.753308	0.561147	0.733137	0.292625	0.248988	
 3235	1.313427	7.057361	-1.736940	-0.181671	-0.494960	0.402336	0.644200	-0.873146	0.744034	0.562671	0.734766	0.285987	0.248459	
 3236	1.122511	7.322154	-1.670160	-0.157448	-0.472730	0.434856	0.640407	-0.882484	0.736169	0.564095	0.736287	0.279768	0.247807	
 3237	0.974202	7.616638	-1.627330	0.000262	-0.520319	0.469857	0.637449	-0.892542	0.729684	0.564131	0.739121	0.272916	0.246927	
 3238	1.290272	8.790669	-1.957465	-0.053231	-0.454674	0.412840	0.636977	-0.900320	0.724460	0.564744	0.741063	0.267192	0.245963	
 3239	0.978383	8.972316	-1.873834	-0.092509	-0.420934	0.355011	0.635986	-0.910508	0.718900	0.565439	0.742750	0.261504	0.245392	
 3240	0.464037	9.213989	-1.793773	0.004658	-0.504608	0.348371	0.636617	-0.917809	0.715358	0.565867	0.744918	0.256101	0.243525	
 3241	0.562709	10.208567	-2.013865	0.071971	-0.628930	0.344876	0.637922	-0.922317	0.710030	0.565868	0.747939	0.249714	0.240881	
 3242	0.364021	10.118964	-1.707362	-0.013626	-0.672502	0.351070	0.639259	-0.932055	0.702221	0.566794	0.750342	0.243278	0.237795	
 3243	0.408352	10.248073	-1.544292	0.023719	-0.649297	0.433330	0.641452	-0.938797	0.696516	0.566954	0.753245	0.235989	0.235573	
 3244	0.193468	10.088457	-1.343291	0.031259	-0.606937	0.569284	0.639325	-0.947433	0.691441	0.566796	0.756175	0.228362	0.234078	
 3245	2.106738	13.099278	-1.826523	0.689760	-0.742521	0.812811	0.631982	-0.954797	0.690059	0.561160	0.763776	0.219201	0.231727	
 3246	1.638826	12.996020	-2.714503	-0.038922	-1.011949	0.813331	0.629920	-0.963382	0.689131	0.561746	0.767624	0.207250	0.228566	
 3247	2.536444	10.784302	-1.756676	0.181244	-1.186742	1.171981	0.620338	-0.979638	0.674779	0.559901	0.773817	0.191564	0.225881	
 3248	4.557438	12.534262	-2.373621	-0.224815	-1.398565	1.421223	0.611463	-0.996483	0.661800	0.560999	0.778288	0.172241	0.223341	
 3249	5.934531	12.192024	-1.941546	-0.371565	-1.230108	1.342191	0.598899	-1.021169	0.640583	0.562757	0.781256	0.153546	0.222186	
 3250	6.784126	12.312196	-1.456910	-0.700343	-1.038874	1.094496	0.584909	-1.045606	0.619012	0.567316	0.781204	0.137620	0.221210	
 3251	6.576240	11.093096	-0.711417	-0.934143	-0.777242	0.729715	0.569208	-1.072543	0.588074	0.573875	0.778652	0.124821	0.220880	
 3252	5.171024	8.847215	0.153693	-1.119359	-0.508667	0.383985	0.559826	-1.094961	0.561083	0.582334	0.773778	0.116466	0.220431	
 3253	3.271339	7.208670	0.404812	-1.026521	-0.370335	0.109913	0.559099	-1.111358	0.538745	0.590334	0.768770	0.110513	0.219739	
 3254	1.785329	5.619955	1.051285	-0.587985	-0.421543	0.050787	0.556144	-1.124044	0.521130	0.595198	0.766273	0.106375	0.217370	
 3255	1.820711	6.010727	0.680108	-0.308207	-0.483123	0.077451	0.555288	-1.132480	0.510393	0.597840	0.765596	0.101550	0.214794	
 3256	1.869111	5.903823	0.413915	-0.166688	-0.399715	0.126968	0.554160	-1.140915	0.502045	0.599251	0.765593	0.097857	0.212581	
 3257	1.770017	6.142575	0.021035	-0.039867	-0.415390	0.214672	0.549576	-1.150138	0.499208	0.599469	0.766453	0.092957	0.211058	
 3258	1.946166	6.009927	-0.200428	0.101920	-0.431962	0.293061	0.547933	-1.157282	0.499131	0.598469	0.768250	0.088366	0.209329	
 3259	2.106249	6.174258	-0.305510	0.228963	-0.540355	0.315547	0.544814	-1.165872	0.500273	0.596495	0.771011	0.082506	0.207191	
 3260	2.268200	6.487276	-0.543744	0.327860	-0.616855	0.269925	0.541034	-1.171530	0.503955	0.593907	0.774459	0.077451	0.203689	
 3261	2.469342	7.183385	-0.875827	0.367100	-0.743279	0.161189	0.541205	-1.175066	0.510060	0.591275	0.778239	0.071859	0.198933	
 3262	2.834427	8.065510	-1.442025	0.407591	-0.645040	0.022353	0.545584	-1.180065	0.515612	0.588508	0.781939	0.068717	0.193672	
 3263	2.713924	8.503955	-1.644873	0.239663	-0.685543	-0.115481	0.551835	-1.184013	0.517424	0.587295	0.784565	0.065378	0.187799	
 3264	2.786049	8.847160	-2.011677	0.366225	-0.638953	-0.151083	0.561199	-1.184848	0.520284	0.585111	0.787808	0.063524	0.181572	
 3265	2.790348	9.386060	-2.381951	0.332917	-0.741792	-0.006932	0.567538	-1.188624	0.523975	0.582928	0.791066	0.059180	0.175807	
 3266	3.128473	10.315130	-2.914309	0.412945	-0.661441	0.217617	0.573947	-1.193146	0.529130	0.579655	0.794752	0.054353	0.171511	
 3267	3.752346	11.422058	-3.308335	0.383046	-0.611149	0.450974	0.570934	-1.199181	0.532722	0.576107	0.798233	0.047225	0.169396	
 3268	4.386004	12.140297	-3.412678	0.309069	-0.438265	0.621375	0.559970	-1.209987	0.541345	0.572777	0.801036	0.040295	0.169247	
 3269	4.250516	12.382193	-3.367785	0.033791	-0.308690	0.706756	0.544592	-1.222561	0.543112	0.571370	0.801998	0.032254	0.171156	
 3270	4.427993	13.024711	-3.293530	-0.167956	-0.147555	0.756299	0.525615	-1.238414	0.541659	0.571453	0.801525	0.025099	0.174270	
 3271	6.712218	15.045606	-3.145061	0.096102	0.183003	0.907958	0.498958	-1.255986	0.548506	0.568999	0.801903	0.018339	0.181260	
 3272	4.608577	13.366797	-3.039104	-0.628732	0.385326	0.859431	0.467455	-1.273828	0.550362	0.572370	0.797750	0.012571	0.189290	
 3273	2.367087	10.391301	-2.346187	-0.724122	0.246624	0.831808	0.439554	-1.291399	0.538824	0.576492	0.793121	0.005301	0.196438	
 3274	2.209664	10.025359	-2.342587	-0.468744	0.225158	0.646626	0.414310	-1.308471	0.529334	0.578909	0.790000	0.000598	0.201900	
 3275	2.273280	10.738806	-2.786355	-0.582844	0.201365	0.353897	0.394418	-1.323640	0.522087	0.582780	0.786124	-0.002828	0.205838	
 3276	2.303224	11.402714	-3.414353	-0.448581	0.035115	0.123331	0.382930	-1.335972	0.511145	0.586046	0.783443	-0.004460	0.206754	
 3277	2.269160	11.252792	-2.986943	-0.122299	0.082945	0.073273	0.373772	-1.344296	0.509231	0.586848	0.782484	-0.005350	0.208084	
 3278	2.776103	10.768136	-2.891272	-0.276705	-0.056606	0.076688	0.365691	-1.351036	0.505806	0.588848	0.780989	-0.006804	0.208010	
 3279	2.691446	10.923287	-3.038351	-0.138915	0.033244	0.128137	0.356578	-1.355538	0.505155	0.589655	0.780036	-0.008394	0.209240	
 3280	2.548825	10.810871	-3.131551	-0.640280	-0.083508	0.126019	0.349734	-1.364053	0.497908	0.594359	0.776427	-0.011130	0.209225	
 3281	2.271352	9.656679	-2.689099	-0.671240	0.069505	0.125195	0.342268	-1.374830	0.479898	0.599279	0.772219	-0.013536	0.210617	
 3282	1.876689	8.129795	-1.867839	-1.003935	0.131770	0.167837	0.330790	-1.389410	0.460772	0.606662	0.765881	-0.016093	0.212434	
 3283	1.724407	7.376771	-1.536266	-0.812397	0.081691	0.350477	0.316992	-1.398709	0.444516	0.612104	0.760658	-0.020408	0.215202	
 3284	1.796802	6.114930	-1.017021	-0.958492	0.074397	0.446210	0.300536	-1.414493	0.420242	0.618413	0.754518	-0.025345	0.218232	
 3285	1.888336	5.257313	-0.706206	-0.913754	0.157213	0.514075	0.282052	-1.427420	0.396683	0.624168	0.748315	-0.030624	0.222488	
 3286	2.241461	4.821642	-0.509164	-0.779369	0.168087	0.605479	0.255774	-1.440328	0.376365	0.628674	0.742876	-0.035785	0.227208	
 3287	2.596509	4.541201	-0.411762	-0.693401	0.125456	0.668832	0.232353	-1.454804	0.356742	0.632298	0.737915	-0.041920	0.232214	
 3288	3.274891	4.803157	-0.676477	-0.585396	0.160828	0.682711	0.208489	-1.465788	0.344358	0.635075	0.733547	-0.047246	0.237394	
 3289	3.727517	5.275574	-0.809972	-0.511067	0.236391	0.656297	0.183751	-1.475876	0.329793	0.637321	0.729360	-0.052170	0.243176	
 3290	4.080596	5.322674	-0.557836	-0.451210	0.180747	0.662352	0.160188	-1.488770	0.318201	0.639079	0.725698	-0.056898	0.248400	
 3291	3.936154	5.580297	-0.838029	-0.601396	0.135775	0.549427	0.135821	-1.498433	0.303399	0.642090	0.721137	-0.061928	0.252679	
 3292	4.085296	5.593813	-0.704716	-0.315127	0.125549	0.523800	0.115746	-1.508728	0.292605	0.643108	0.718484	-0.065646	0.256678	
 3293	4.310680	6.559907	-1.112036	-0.322625	0.072270	0.505829	0.093627	-1.518162	0.284765	0.644102	0.715842	-0.070072	0.260369	
 3294	5.306611	7.755471	-1.160539	-0.100374	-0.099874	0.542445	0.074481	-1.523684	0.280515	0.643333	0.715091	-0.074810	0.263003	
 3295	6.794205	9.825146	-1.407597	-0.079173	-0.077981	0.536417	0.054015	-1.532559	0.280673	0.642333	0.714352	-0.079797	0.265973	
 3296	6.999386	10.521684	-1.385794	-0.005704	-0.041823	0.460981	0.036984	-1.538786	0.283229	0.641110	0.714079	-0.083317	0.268566	
 3297	6.197586	10.325594	-1.132145	-0.001915	-0.054499	0.408668	0.019456	-1.542642	0.286323	0.639867	0.713857	-0.087029	0.270932	
 3298	7.887640	12.521730	-0.236448	0.153215	-0.146377	0.500761	0.000304	-1.548313	0.287415	0.637286	0.714815	-0.091078	0.273149	
 3299	8.553985	13.933378	-3.374225	-0.357295	0.170468	0.604084	-0.029027	-1.550504	0.298596	0.638193	0.711515	-0.095715	0.278019	
 3300	7.547037	10.801068	0.729438	0.073465	-0.134800	0.663283	-0.050673	-1.554520	0.284854	0.635683	0.711738	-0.101025	0.281300	
 3301	7.867376	12.270413	0.240593	-0.671573	0.119160	0.430423	-0.071569	-1.559873	0.281563	0.639235	0.706663	-0.105650	0.284329	
 3302	6.455831	10.736130	1.090268	-0.537925	0.346550	0.014689	-0.084856	-1.564085	0.265682	0.643335	0.702247	-0.104970	0.286271	
 3303	7.012648	11.074166	2.277965	-0.324087	0.612711	-0.239200	-0.089761	-1.567739	0.253688	0.646853	0.698592	-0.100693	0.288811	
 3304	6.160097	10.802148	2.713182	-0.693600	0.705920	-0.453618	-0.085362	-1.572673	0.237728	0.653678	0.692514	-0.094886	0.290043	
 3305	4.901711	9.866386	3.419392	-0.564710	0.688589	-0.501919	-0.078427	-1.573627	0.218784	0.659669	0.687164	-0.088937	0.291089	
 3306	4.462941	9.380444	3.392544	-0.289434	0.618813	-0.464945	-0.069247	-1.577687	0.206485	0.663546	0.683872	-0.082452	0.291938	
 3307	3.368863	8.286865	3.310493	-0.125865	0.467736	-0.470736	-0.060426	-1.579937	0.200336	0.666227	0.681890	-0.076853	0.291994	
 3308	2.596465	7.651742	2.746339	0.012504	0.254046	-0.514900	-0.056005	-1.579078	0.199029	0.667836	0.681644	-0.071563	0.290233	
 3309	1.981387	6.945390	2.243288	0.164013	0.014729	-0.546348	-0.043458	-1.576877	0.204410	0.668430	0.682893	-0.067572	0.286867	
 3310	1.499557	6.289715	1.675340	0.205544	-0.240862	-0.552245	-0.029693	-1.578320	0.210884	0.668440	0.685344	-0.064771	0.281596	
 3311	1.420918	5.908397	1.030486	0.248851	-0.452462	-0.500858	-0.012289	-1.577196	0.221371	0.667984	0.688399	-0.063918	0.275351	
 3312	1.493140	5.464166	0.633322	0.176448	-0.573951	-0.384547	-0.000229	-1.575839	0.227243	0.667450	0.691412	-0.064569	0.268868	
 3313	1.713179	5.101597	0.312438	0.137596	-0.653026	-0.188676	0.004332	-1.576478	0.231535	0.666720	0.694011	-0.067475	0.263212	
 3314	2.189622	4.927735	0.046379	0.082633	-0.624020	-0.000588	0.005087	-1.576320	0.233991	0.665720	0.696216	-0.071366	0.258857	
 3315	2.549314	4.747283	-0.070935	0.072355	-0.556199	0.173075	-0.000031	-1.577146	0.236857	0.664500	0.697833	-0.076297	0.256219	
 3316	2.877145	4.526034	0.046023	0.137679	-0.513609	0.307026	-0.011135	-1.577643	0.240547	0.662353	0.699843	-0.081451	0.254704	
 3317	3.340153	4.970756	-0.011143	0.242106	-0.492823	0.407614	-0.024943	-1.577675	0.246742	0.659333	0.702190	-0.087167	0.254189	
 3318	4.204251	5.986371	-0.122156	0.314697	-0.456734	0.452737	-0.043099	-1.577980	0.255862	0.655562	0.705040	-0.092509	0.254163	
 3319	4.826277	6.594732	0.000154	0.381772	-0.422471	0.494265	-0.059763	-1.576868	0.266835	0.651322	0.707978	-0.098024	0.254828	
 3320	6.176372	7.959857	-0.185357	0.450448	-0.306677	0.585774	-0.081092	-1.576114	0.282180	0.646323	0.711125	-0.102968	0.256837	
 3321	6.983868	8.786220	-0.203834	0.470870	-0.240578	0.721444	-0.109302	-1.572789	0.298592	0.640954	0.713851	-0.108703	0.260343	
 3322	8.106974	10.016785	-0.128381	0.604918	-0.141763	0.809337	-0.139258	-1.570632	0.315944	0.634346	0.717210	-0.113756	0.265095	
 3323	8.192189	10.626583	-0.400611	0.470130	0.001351	0.703907	-0.169533	-1.563218	0.335090	0.629189	0.719186	-0.117838	0.270199	
 3324	8.019066	10.806349	0.112811	0.578091	0.056992	0.513498	-0.194529	-1.556736	0.349216	0.623694	0.722074	-0.119547	0.274452	
 3325	12.435113	15.411785	-1.590515	1.069436	0.158189	0.482284	-0.216557	-1.546780	0.377749	0.614895	0.727496	-0.119414	0.279988	
 3326	7.626327	11.218747	0.604501	0.217598	0.193186	0.108206	-0.231875	-1.541145	0.385000	0.613241	0.728191	-0.118349	0.282251	
 3327	5.345879	11.196162	-0.824954	0.502597	0.045608	-0.294570	-0.235484	-1.533944	0.401578	0.610585	0.731286	-0.114783	0.281482	
 3328	3.792093	10.520545	-0.869322	0.626052	-0.281963	-0.767101	-0.223734	-1.528429	0.414841	0.607814	0.736773	-0.109073	0.275374	
 3329	4.420629	11.788775	-2.300331	0.465647	-0.519831	-0.978405	-0.198259	-1.523646	0.433784	0.606600	0.741885	-0.103933	0.266159	
 3330	4.234714	11.516225	-2.437205	0.525665	-0.610151	-0.815529	-0.170365	-1.518234	0.449685	0.604201	0.747524	-0.100122	0.257149	
 3331	3.594061	10.720913	-3.062553	0.673037	-0.586123	-0.596351	-0.141854	-1.507606	0.473720	0.600197	0.753532	-0.097593	0.249857	
 3332	3.116327	9.548786	-2.927768	0.488709	-0.609111	-0.453499	-0.124883	-1.499120	0.489233	0.597032	0.758425	-0.096554	0.242943	
 3333	2.912954	9.019176	-3.034803	0.470159	-0.601801	-0.336239	-0.119633	-1.489551	0.503608	0.593772	0.762915	-0.096512	0.236815	
 3334	3.070642	8.511501	-3.320288	0.287394	-0.556119	-0.196947	-0.110330	-1.480619	0.516899	0.591499	0.766138	-0.097574	0.231607	
 3335	2.691565	7.803847	-3.116595	0.272222	-0.428691	-0.248613	-0.104191	-1.469146	0.531226	0.589620	0.768933	-0.097588	0.227084	
 3336	2.718997	5.731505	-2.077645	0.040869	-0.228360	-0.250392	-0.093669	-1.466063	0.529007	0.589650	0.769957	-0.096863	0.223821	
 3337	2.641804	5.991793	-2.331821	-0.220761	-0.030005	-0.283613	-0.090169	-1.463054	0.524600	0.591991	0.768974	-0.095350	0.221662	
 3338	2.663702	5.332068	-1.890549	-0.434571	0.141096	-0.317870	-0.087216	-1.462003	0.513848	0.596164	0.766405	-0.092979	0.220378	
 3339	2.762282	5.386272	-1.661152	-0.561427	0.172402	-0.346454	-0.084786	-1.463734	0.497141	0.601403	0.762976	-0.090527	0.219062	
 3340	2.469811	5.039332	-1.231213	-0.718910	0.168737	-0.387101	-0.079515	-1.465926	0.475399	0.607869	0.758631	-0.088080	0.217291	
 3341	2.388893	4.783256	-0.916529	-0.698281	0.141346	-0.423170	-0.074260	-1.469958	0.450422	0.614212	0.754422	-0.085520	0.215121	
 3342	2.771339	5.573021	-1.153290	-0.799250	0.183736	-0.501611	-0.068327	-1.472022	0.429125	0.621451	0.749536	-0.082274	0.212660	
 3343	3.516433	6.292739	-1.019000	-0.528946	0.215523	-0.494976	-0.059240	-1.474222	0.409498	0.626646	0.746175	-0.078350	0.210712	
 3344	3.886739	7.691879	-1.314739	-0.543146	0.236484	-0.515342	-0.051211	-1.472966	0.394933	0.631952	0.742677	-0.074116	0.208742	
 3345	4.598720	8.892312	-1.536509	-0.363394	0.275077	-0.496780	-0.044314	-1.475500	0.380506	0.635886	0.740161	-0.069459	0.207330	
 3346	4.784117	9.263959	-1.695634	-0.268433	0.342622	-0.416107	-0.042209	-1.473849	0.368105	0.638966	0.738042	-0.064713	0.206952	
 3347	4.383624	9.802848	-1.932584	-0.402857	0.419922	-0.309570	-0.040234	-1.471665	0.355703	0.642828	0.734800	-0.060600	0.207770	
 3348	4.945158	10.777819	-1.729205	-0.123086	0.462010	-0.121994	-0.041074	-1.468372	0.346211	0.644262	0.733136	-0.056946	0.210226	
 3349	4.447086	11.549594	-2.052994	-0.268964	0.633727	-0.031478	-0.050899	-1.465594	0.341880	0.646619	0.730105	-0.053216	0.214470	
 3350	2.943228	10.516837	-0.808161	-0.253594	0.614922	0.029050	-0.058920	-1.461012	0.329675	0.648725	0.727138	-0.049949	0.218934	
 3351	10.078119	18.350589	-2.365912	0.977744	0.538802	0.416154	-0.080009	-1.450601	0.339968	0.640889	0.732084	-0.047365	0.225988	
 3352	-0.475005	7.392273	2.203951	-0.958831	0.416104	0.205718	-0.096256	-1.449230	0.313290	0.647611	0.724882	-0.048328	0.229806	
 3353	3.236466	12.696326	-0.626073	0.367923	0.443688	0.287775	-0.108408	-1.439340	0.322812	0.644493	0.726110	-0.046654	0.234984	
 3354	5.004588	13.911499	0.883550	-0.430544	0.643026	0.144401	-0.121404	-1.433839	0.308430	0.647566	0.721756	-0.044525	0.240300	
 3355	3.920980	13.727738	1.449380	-0.650766	0.679384	-0.125439	-0.126686	-1.430805	0.288895	0.652896	0.715915	-0.040708	0.243998	
 3356	3.251275	12.954725	2.388141	-0.769722	0.542950	-0.333618	-0.125224	-1.426834	0.260185	0.659416	0.709687	-0.036608	0.245305	
 3357	3.287990	12.543965	2.720633	-0.750678	0.390770	-0.392614	-0.117803	-1.424252	0.235445	0.665950	0.703816	-0.032967	0.245086	
 3358	2.720635	10.961404	2.846530	-0.657170	0.331791	-0.382454	-0.108071	-1.421079	0.210862	0.671607	0.698750	-0.029636	0.244569	
 3359	1.972440	9.247377	2.850604	-0.431139	0.225972	-0.335456	-0.101530	-1.416961	0.192101	0.675686	0.695258	-0.026676	0.243626	
 3360	1.266847	7.788755	2.552118	-0.262935	0.074822	-0.334943	-0.092584	-1.409840	0.181155	0.678353	0.693402	-0.024444	0.241729	
 3361	1.166129	7.104630	1.822110	-0.001661	-0.048336	-0.286466	-0.086299	-1.402979	0.176315	0.679275	0.693407	-0.022605	0.239292	
 3362	1.094694	6.276783	1.234703	0.153263	-0.105155	-0.176837	-0.081295	-1.395777	0.177011	0.678619	0.694758	-0.021688	0.237315	
 3363	1.218276	5.565638	0.673331	0.392108	-0.141287	-0.002502	-0.080922	-1.388423	0.180084	0.676112	0.697571	-0.021493	0.236229	
 3364	1.661267	5.567081	-0.010139	0.202590	-0.062702	0.104557	-0.085591	-1.381302	0.184967	0.674446	0.699085	-0.022130	0.236461	
 3365	1.787100	4.860726	-0.071730	0.351801	0.020820	0.325639	-0.095220	-1.373812	0.187935	0.671453	0.701163	-0.023225	0.238707	
 3366	2.078423	5.175789	-0.339225	0.388021	0.098097	0.455148	-0.109832	-1.367309	0.199387	0.667666	0.703436	-0.024791	0.242457	
 3367	2.102514	5.058305	-0.194073	0.384424	0.099049	0.561225	-0.127727	-1.357457	0.206670	0.663837	0.705459	-0.026938	0.246823	
 3368	2.413902	5.383695	-0.239220	0.315582	0.030722	0.591049	-0.146633	-1.350039	0.211312	0.660155	0.707324	-0.030084	0.250964	
 3369	3.168813	6.039639	-0.270297	0.304404	-0.002509	0.574838	-0.166052	-1.340223	0.213419	0.656761	0.709018	-0.033206	0.254670	
 3370	3.151001	6.164947	-0.071100	0.198013	0.023412	0.490944	-0.184361	-1.332340	0.217172	0.654115	0.710107	-0.035987	0.258044	
 3371	4.772482	8.149724	-0.182893	0.276126	0.031850	0.454411	-0.199842	-1.324524	0.221105	0.651189	0.711531	-0.038118	0.261196	
 3372	5.415613	9.387141	-0.126782	0.055732	0.123933	0.374182	-0.215288	-1.317793	0.220214	0.649867	0.711444	-0.039783	0.264457	
 3373	5.740736	9.552564	0.183479	0.171484	0.069526	0.323127	-0.229944	-1.310930	0.219776	0.648014	0.712114	-0.041032	0.266996	
 3374	6.718428	10.812070	0.037346	-0.098241	0.109880	0.259919	-0.239873	-1.302833	0.213647	0.648073	0.711097	-0.042390	0.269344	
 3375	5.499834	10.060944	0.631942	-0.030770	0.027051	0.212983	-0.250019	-1.295319	0.208297	0.647926	0.710598	-0.043696	0.270801	
 3376	10.769230	15.612480	1.430906	0.784612	0.182532	0.326984	-0.261183	-1.286407	0.211454	0.641535	0.715039	-0.042675	0.274465	
 3377	6.364478	12.456942	0.606949	-0.659678	0.526610	0.099561	-0.269381	-1.276324	0.204129	0.646392	0.709132	-0.041743	0.278507	
 3378	4.802173	10.829881	0.710756	0.624700	0.285071	-0.130390	-0.272291	-1.269781	0.208182	0.642439	0.712436	-0.037187	0.279866	
 3379	3.074671	9.843096	-0.070938	0.460910	-0.037774	-0.509070	-0.266456	-1.262636	0.212938	0.640776	0.715512	-0.032410	0.276402	
 3380	3.300755	11.025731	-1.151473	1.025315	-0.380282	-0.702489	-0.249176	-1.255003	0.229527	0.635218	0.723320	-0.026944	0.269408	
 3381	4.611923	13.702008	-3.778672	0.709183	-0.349565	-0.885029	-0.224409	-1.248171	0.249925	0.632522	0.728841	-0.020702	0.261300	
 3382	3.455063	11.611727	-2.636487	0.703895	-0.271362	-0.770573	-0.205317	-1.242333	0.255780	0.629324	0.734138	-0.014919	0.254500	
 3383	2.827935	11.638503	-3.281572	0.250637	-0.252872	-0.703393	-0.189967	-1.234188	0.266774	0.629363	0.736377	-0.010510	0.248074	
 3384	2.497446	10.385328	-2.705484	0.192975	-0.194427	-0.615307	-0.171553	-1.230184	0.268951	0.629443	0.738139	-0.006676	0.242708	
 3385	2.275480	9.514658	-2.276167	-0.004662	-0.135050	-0.593841	-0.156834	-1.226415	0.266076	0.631013	0.738433	-0.002917	0.237763	
 3386	1.925585	8.388463	-1.838029	-0.143351	-0.167028	-0.595857	-0.141631	-1.221112	0.257242	0.633480	0.737945	0.000132	0.232681	
 3387	1.801844	7.490090	-1.528855	-0.284670	-0.277009	-0.566154	-0.126922	-1.216378	0.248769	0.636978	0.736755	0.002153	0.226820	
 3388	1.883318	6.706192	-1.071750	-0.395617	-0.216258	-0.562233	-0.113209	-1.213838	0.240734	0.641164	0.734710	0.004067	0.221570	
 3389	2.026148	6.472811	-1.056852	-0.522449	-0.187701	-0.535508	-0.100342	-1.211346	0.225562	0.646258	0.731727	0.005904	0.216544	
 3390	1.920414	5.989484	-0.647578	-0.575043	-0.001854	-0.609114	-0.089102	-1.210133	0.208395	0.651770	0.727969	0.009148	0.212541	
 3391	2.019059	6.002924	-0.540344	-0.602239	0.058475	-0.651255	-0.077254	-1.208990	0.187793	0.657579	0.723826	0.013245	0.208545	
 3392	1.850072	5.698209	-0.239865	-0.550984	0.114782	-0.630487	-0.065164	-1.207701	0.169613	0.662851	0.719869	0.017456	0.205214	
 3393	1.689917	5.719029	-0.047744	-0.379406	0.158104	-0.546026	-0.054213	-1.202075	0.157572	0.666729	0.716907	0.021901	0.202578	
 3394	0.798177	5.794703	0.344006	-0.322656	-0.121046	-0.476225	-0.045173	-1.198251	0.145648	0.670029	0.714898	0.023896	0.198520	
 3395	0.938077	7.519090	-0.436839	-0.728356	0.132274	-0.680978	-0.036893	-1.196058	0.133785	0.676594	0.709540	0.028464	0.194840	
 3396	1.461417	6.248469	0.558594	0.146987	0.393459	-0.507041	-0.031295	-1.192202	0.119503	0.676421	0.709622	0.035048	0.194070	
 3397	2.072546	9.505527	-0.551232	-0.271845	0.263343	-0.573186	-0.026077	-1.188272	0.116288	0.679423	0.707035	0.040624	0.191926	
 3398	1.635974	8.765126	0.075796	-0.202186	0.085043	-0.504779	-0.018341	-1.185401	0.106538	0.681783	0.705294	0.044427	0.189097	
 3399	1.388386	9.192986	-0.150452	-0.190838	0.016427	-0.426681	-0.011038	-1.182633	0.098496	0.683989	0.703743	0.047447	0.186157	
 3400	2.240950	10.844890	-0.100314	-0.031089	-0.132183	-0.365036	-0.010747	-1.179172	0.094023	0.684952	0.703609	0.049094	0.182659	
 3401	0.971383	10.720538	-0.119199	-0.183298	-0.062276	-0.460203	-0.010142	-1.176958	0.087948	0.687167	0.702212	0.051836	0.178921	
 3402	2.328515	12.779896	1.463563	0.297605	-0.231863	-0.339458	-0.008345	-1.173031	0.085583	0.685803	0.704498	0.053197	0.174718	
 3403	1.491685	15.018893	-3.867953	-0.322247	0.247653	-0.557603	-0.005739	-1.172117	0.097523	0.688932	0.701547	0.058538	0.172561	
 3404	0.742154	11.966595	2.207737	0.738368	-0.453608	-0.415246	0.000985	-1.167410	0.085463	0.684709	0.707151	0.059638	0.165993	
 3405	-1.056440	13.290185	0.563074	-0.384350	-0.248294	-0.599096	0.005479	-1.164773	0.088597	0.688622	0.704520	0.061855	0.160082	
 3406	-0.297089	14.344004	1.268134	-0.215079	-0.046522	-0.645056	0.009425	-1.163290	0.085398	0.691185	0.702707	0.065784	0.155366	
 3407	-1.302595	13.955576	1.438008	-0.375638	0.060009	-0.659862	0.017148	-1.160139	0.075384	0.694897	0.699488	0.070626	0.151150	
 3408	-2.255104	12.752476	2.029087	-0.727570	-0.077705	-0.683709	0.029199	-1.158540	0.056405	0.701044	0.694041	0.073808	0.146278	
 3409	-1.842513	12.619690	1.581793	-0.645561	-0.068095	-0.596109	0.034893	-1.156514	0.041300	0.706565	0.689024	0.076968	0.141729	
 3410	-1.812927	11.698992	1.772998	-0.526631	0.137105	-0.630721	0.038928	-1.155219	0.029018	0.710961	0.684607	0.081582	0.138540	
 3411	-1.480394	10.061911	1.782208	-0.007947	0.128304	-0.443052	0.038288	-1.152935	0.020993	0.711690	0.683841	0.086010	0.135868	
 3412	-1.505541	9.168479	1.643808	-0.389730	-0.085012	-0.465941	0.041301	-1.148880	0.011759	0.715053	0.680777	0.088101	0.132217	
 3413	-1.559039	8.519000	1.382448	-0.005483	-0.110177	-0.390922	0.045425	-1.148239	0.006822	0.715893	0.680339	0.090494	0.128243	
 3414	-1.032754	8.411811	0.671743	0.128642	-0.066411	-0.312391	0.043710	-1.145748	0.009564	0.715478	0.681065	0.092352	0.125354	
 3415	-0.541198	7.933096	0.573824	-0.070720	-0.112649	-0.243901	0.042877	-1.145965	0.008172	0.716561	0.680273	0.093656	0.122463	
 3416	-0.032275	7.389315	0.382235	0.284931	0.137063	-0.154592	0.037898	-1.145731	0.011329	0.714682	0.682003	0.096086	0.121940	
 3417	0.069947	7.358012	0.077933	0.098348	0.157914	-0.144578	0.032638	-1.145877	0.013929	0.714217	0.682183	0.098847	0.121449	
 3418	0.045440	6.827345	0.257041	0.243871	0.159710	-0.137925	0.028279	-1.148271	0.016419	0.712562	0.683595	0.101274	0.121231	
 3419	0.260378	6.860402	0.160603	0.359295	0.232823	-0.132840	0.022807	-1.149550	0.022595	0.710197	0.685552	0.104785	0.121078	
 3420	0.053239	6.744066	0.108321	0.293996	0.234282	-0.161415	0.018660	-1.154046	0.029477	0.708128	0.687184	0.107963	0.121150	
 3421	-0.180321	6.546237	0.292469	0.278190	0.218613	-0.213078	0.015680	-1.158649	0.033893	0.706397	0.688479	0.111807	0.120412	
 3422	-0.280565	6.854403	0.399718	0.245420	0.277146	-0.221951	0.014017	-1.165257	0.038898	0.704661	0.689627	0.115640	0.120398	
 3423	-0.036127	8.107391	0.405082	0.270307	0.335943	-0.310247	0.014235	-1.169100	0.043264	0.702933	0.690584	0.120954	0.119786	
 3424	0.085142	9.021463	0.648372	0.239551	0.305470	-0.376935	0.016336	-1.175527	0.049315	0.701353	0.691436	0.126045	0.118878	
 3425	0.281201	9.718314	0.773039	0.218965	0.360409	-0.302002	0.018783	-1.181636	0.054591	0.699900	0.691972	0.131375	0.118558	
 3426	0.137705	9.805104	1.156722	0.267517	0.436981	-0.121550	0.020255	-1.190495	0.060700	0.697612	0.693157	0.135644	0.120298	
 3427	-0.177576	10.022080	1.144900	0.317907	0.489751	0.071732	0.016425	-1.200122	0.068460	0.694829	0.694674	0.139373	0.123355	
 3428	-0.041532	10.544831	1.194810	0.435436	0.534590	0.261165	0.008609	-1.206904	0.076141	0.690723	0.697386	0.141855	0.128187	
 3429	2.023337	13.496619	1.131454	0.685181	0.561545	0.407379	-0.003273	-1.215059	0.089953	0.684797	0.701738	0.144140	0.133565	
 3430	-0.510211	10.648746	1.864589	0.290010	0.600810	0.294813	-0.016066	-1.225335	0.097797	0.681491	0.703328	0.146621	0.139294	
 3431	-0.094952	11.737629	0.914248	0.725296	0.541000	0.296572	-0.027102	-1.234098	0.115930	0.675393	0.707690	0.149585	0.143680	
 3432	-1.320420	11.224695	0.826211	1.009007	0.407170	0.220034	-0.036754	-1.243328	0.133476	0.667295	0.714205	0.152265	0.146440	
 3433	-2.602050	11.493662	-0.472287	1.172281	0.201972	0.129076	-0.042043	-1.249812	0.159626	0.658644	0.721634	0.154786	0.146540	
 3434	-3.209464	10.494923	-1.335560	1.452603	-0.074118	0.232218	-0.048139	-1.254561	0.190559	0.647876	0.731591	0.154777	0.145175	
 3435	-3.110056	9.684898	-1.751466	1.318260	0.021423	0.443834	-0.053638	-1.260846	0.220439	0.637761	0.740484	0.154023	0.145676	
 3436	-2.217023	10.491539	-3.559059	1.297848	-0.097988	0.753531	-0.065205	-1.262350	0.260688	0.627142	0.749978	0.149745	0.147654	
 3437	-1.341383	8.700660	-2.826136	1.559167	0.008089	1.026264	-0.088807	-1.263089	0.292962	0.614056	0.760963	0.144872	0.151269	
 3438	-0.774511	8.765295	-3.483528	1.715529	0.090567	1.103239	-0.117392	-1.259331	0.331396	0.599092	0.772802	0.139628	0.156109	
 3439	-0.471867	8.440078	-3.455469	1.715556	0.067534	1.052252	-0.142164	-1.253044	0.372116	0.584194	0.784148	0.135062	0.159960	
 3440	-0.624688	8.634370	-3.685734	1.640920	0.024868	0.958802	-0.165397	-1.245515	0.412953	0.569670	0.794848	0.130338	0.163418	
 3441	-0.229943	9.276784	-4.348945	1.531559	0.032331	0.884740	-0.184718	-1.235956	0.455407	0.556115	0.804450	0.126498	0.166114	
 3442	0.368415	9.760159	-5.090404	1.479735	0.151071	0.811322	-0.202278	-1.223887	0.491866	0.542604	0.813338	0.123317	0.169865	
 3443	0.306146	9.249493	-5.226666	1.009512	-0.110424	0.836945	-0.220930	-1.214410	0.518464	0.533223	0.819909	0.118149	0.171646	
 3444	0.589714	9.286926	-5.509903	0.844035	0.063702	0.869036	-0.239099	-1.207133	0.538782	0.524709	0.825268	0.112866	0.175709	
 3445	0.799533	8.955625	-5.345161	0.624772	0.162308	0.895132	-0.256629	-1.200749	0.553516	0.517896	0.829205	0.107964	0.180409	
 3446	1.148962	8.599222	-5.162042	0.415822	0.240775	0.929365	-0.275856	-1.193954	0.562136	0.512497	0.831886	0.102304	0.186672	
 3447	1.043640	8.053534	-4.872655	0.315775	0.430995	1.000551	-0.298747	-1.189163	0.566216	0.507636	0.833687	0.097318	0.194422	
 3448	0.848811	7.954110	-4.800561	0.296994	0.476748	0.944617	-0.323464	-1.180525	0.572640	0.502844	0.835142	0.092497	0.202807	
 3449	0.840147	7.925643	-4.695455	0.278345	0.432533	0.801364	-0.344966	-1.172861	0.573779	0.498564	0.836416	0.089099	0.209534	
 3450	0.974960	8.437406	-4.946889	0.298736	0.383934	0.637757	-0.362282	-1.165591	0.579456	0.494386	0.837647	0.086369	0.215571	
 3451	0.981974	8.828499	-5.227070	0.255857	0.300150	0.527424	-0.376816	-1.157380	0.578913	0.490918	0.838774	0.084562	0.219788	
 3452	1.136448	9.004918	-5.465972	0.145937	0.222395	0.511085	-0.385988	-1.151284	0.580552	0.488392	0.839426	0.081748	0.223951	
 3453	1.272439	8.869417	-5.562926	-0.029107	0.133279	0.568417	-0.398730	-1.146103	0.582484	0.487316	0.839532	0.078163	0.227155	
 3454	1.328866	8.621774	-5.605105	-0.150254	0.135312	0.639301	-0.410589	-1.141529	0.578584	0.487019	0.838978	0.073201	0.231450	
 3455	1.398186	8.217416	-5.461633	-0.161102	0.040795	0.713426	-0.423131	-1.136393	0.573848	0.486732	0.838724	0.067664	0.234639	
 3456	1.616615	8.223761	-5.412360	-0.278346	-0.053507	0.722793	-0.436925	-1.135705	0.563889	0.487414	0.837968	0.060739	0.237798	
 3457	2.303990	8.248954	-5.565946	-0.191945	0.059678	0.719589	-0.449542	-1.128216	0.557713	0.487300	0.837459	0.055181	0.241158	
 3458	2.562873	8.272759	-5.528720	-0.247111	0.127162	0.717979	-0.467717	-1.121635	0.553172	0.487564	0.836328	0.049282	0.245782	
 3459	2.627028	8.171991	-5.481701	-0.271472	0.170085	0.680365	-0.481713	-1.114475	0.544899	0.488081	0.835084	0.044398	0.249881	
 3460	2.967225	8.206636	-5.461521	-0.213715	0.196054	0.692437	-0.498468	-1.106789	0.537926	0.488046	0.833845	0.039127	0.254915	
 3461	3.367013	8.430526	-5.407154	-0.236159	0.227035	0.704423	-0.514844	-1.098142	0.528187	0.488110	0.832582	0.034401	0.259562	
 3462	3.747494	8.672664	-5.316739	-0.277240	0.253318	0.707145	-0.530116	-1.089822	0.520116	0.488493	0.830800	0.029120	0.265139	
 3463	3.706628	8.618227	-5.001196	-0.383434	0.246277	0.715314	-0.545660	-1.082290	0.511616	0.489673	0.828695	0.024000	0.270016	
 3464	3.936161	8.393450	-4.883818	-0.512145	0.282135	0.721754	-0.562636	-1.073284	0.497301	0.491885	0.825577	0.018130	0.275942	
 3465	4.027574	7.637586	-4.259230	-0.523222	0.316905	0.735779	-0.578309	-1.066924	0.480492	0.494064	0.822490	0.012797	0.281509	
 3466	4.266333	7.497622	-3.938203	-0.553979	0.338680	0.721030	-0.597588	-1.057838	0.463492	0.496538	0.818869	0.007073	0.287844	
 3467	4.497192	7.299221	-3.447665	-0.549309	0.369833	0.680557	-0.613350	-1.049923	0.447636	0.498995	0.815367	0.002361	0.293554	
 3468	4.658512	7.215062	-3.085353	-0.510128	0.375520	0.626157	-0.628072	-1.039863	0.432279	0.501296	0.811720	-0.002259	0.299680	
 3469	4.859816	7.161437	-2.792408	-0.411912	0.268774	0.627403	-0.642878	-1.031066	0.420505	0.502722	0.809091	-0.006661	0.304300	
 3470	4.978461	6.892237	-2.423686	-0.425815	0.250291	0.566364	-0.655903	-1.020338	0.408607	0.504454	0.806148	-0.011170	0.309075	
 3471	5.100093	7.112689	-2.356139	-0.360365	0.158017	0.529862	-0.667394	-1.012111	0.399174	0.505711	0.804038	-0.015213	0.312327	
 3472	5.295415	7.097355	-2.189705	-0.227939	0.151434	0.504990	-0.677466	-1.002532	0.392792	0.505993	0.802343	-0.019116	0.315993	
 3473	5.430635	7.199227	-2.175436	-0.203523	0.081862	0.522073	-0.687267	-0.992307	0.389510	0.505979	0.801202	-0.023023	0.318639	
 3474	5.700623	7.409227	-2.223384	-0.192074	-0.045613	0.511065	-0.695457	-0.982254	0.387798	0.505880	0.800269	-0.027849	0.320749	
 3475	6.034741	7.369695	-2.210732	-0.111057	-0.008515	0.494638	-0.703609	-0.971975	0.386893	0.505181	0.799831	-0.031732	0.322578	
