// Start Time: 0
// Sample rate: 120.0Hz
// Scenario: 5.9
// Firmware Version: 2.5.1
Counter	Acc_X	Acc_Y	Acc_Z	Gyr_X	Gyr_Y	Gyr_Z	Mag_X	Mag_Y	Mag_Z	Latitude	Longitude	Altitude	
37328	-9.617241	-1.890491	-0.826315	-0.014048	0.009609	-0.002849	0.880573	0.731624	-0.141869	0.000000000	0.000000000	0.000000	
37329	-9.609844	-1.904568	-0.840672	-0.004734	0.016068	-0.005569	0.882882	0.732714	-0.141174	0.000000000	0.000000000	0.000000	
37330	-9.619795	-1.882887	-0.857389	-0.008519	0.024366	0.006418	0.878188	0.729692	-0.144431	0.000000000	0.000000000	0.000000	
37331	-9.613343	-1.836931	-0.883674	-0.013148	0.011472	0.001765	0.879260	0.730317	-0.143029	0.000000000	0.000000000	0.000000	
37332	-9.600873	-1.869902	-0.912388	-0.012184	0.009574	-0.010229	0.878438	0.731156	-0.144399	0.000000000	0.000000000	0.000000	
37333	-9.615887	-1.827416	-0.881277	0.000822	0.006114	0.012894	0.879761	0.730998	-0.143121	0.000000000	0.000000000	0.000000	
37334	-9.594151	-1.836779	-0.878911	-0.013150	0.017864	-0.002847	0.883588	0.731209	-0.142598	0.000000000	0.000000000	0.000000	
37335	-9.584270	-1.855721	-0.886100	-0.015912	0.000427	-0.001040	0.878580	0.729821	-0.144138	0.000000000	0.000000000	0.000000	
37336	-9.598987	-1.832390	-0.854997	-0.020567	-0.005987	0.004472	0.881323	0.730600	-0.142226	0.000000000	0.000000000	0.000000	
37337	-9.562855	-1.843673	-0.874161	-0.016806	-0.006959	-0.008441	0.879472	0.731029	-0.143934	0.000000000	0.000000000	0.000000	
37338	-9.572141	-1.865057	-0.893287	-0.021524	0.002249	0.003544	0.881369	0.730418	-0.141166	0.000000000	0.000000000	0.000000	
37339	-9.594072	-1.839587	-0.850223	-0.017770	0.004074	-0.003807	0.881063	0.732185	-0.142228	0.000000000	0.000000000	0.000000	
37340	-9.566851	-1.896233	-0.886132	-0.023422	0.006875	0.013685	0.879284	0.731877	-0.142350	0.000000000	0.000000000	0.000000	
37341	-9.590820	-1.894632	-0.850248	-0.020580	0.009562	-0.002891	0.880203	0.729753	-0.141780	0.000000000	0.000000000	0.000000	
37342	-9.595650	-1.890311	-0.821553	-0.039239	0.013140	0.000719	0.877182	0.727541	-0.144387	0.000000000	0.000000000	0.000000	
37343	-9.597930	-1.899607	-0.843072	-0.021532	0.010515	0.004488	0.881157	0.731959	-0.143018	0.000000000	0.000000000	0.000000	
37344	-9.590867	-1.890118	-0.831121	-0.017782	0.007760	-0.000112	0.879888	0.731134	-0.143111	0.000000000	0.000000000	0.000000	
37345	-9.593890	-1.849510	-0.826320	-0.019618	0.002214	-0.006584	0.880042	0.729787	-0.142585	0.000000000	0.000000000	0.000000	
37346	-9.596373	-1.846660	-0.859787	-0.006576	0.005951	-0.008364	0.879852	0.731833	-0.143901	0.000000000	0.000000000	0.000000	
37347	-9.615782	-1.832515	-0.859763	-0.016875	0.001416	0.011884	0.878320	0.729689	-0.144289	0.000000000	0.000000000	0.000000	
37348	-9.601564	-1.820515	-0.850209	-0.008457	0.006889	-0.002835	0.882782	0.731229	-0.140666	0.000000000	0.000000000	0.000000	
37349	-9.586770	-1.848669	-0.878922	-0.006588	0.004139	-0.003758	0.878464	0.730071	-0.143879	0.000000000	0.000000000	0.000000	
37350	-9.593151	-1.899379	-0.855030	-0.023353	0.004018	-0.007522	0.881071	0.729666	-0.142252	0.000000000	0.000000000	0.000000	
37351	-9.605537	-1.875332	-0.871743	-0.015904	-0.005052	0.002653	0.880438	0.730440	-0.142155	0.000000000	0.000000000	0.000000	
37352	-9.610114	-1.889719	-0.874136	-0.025216	0.000346	-0.006606	0.879873	0.730490	-0.143516	0.000000000	0.000000000	0.000000	
37353	-9.624078	-1.914380	-0.835881	-0.015906	0.002280	0.000826	0.882082	0.731811	-0.142163	0.000000000	0.000000000	0.000000	
37354	-9.595204	-1.919044	-0.821565	-0.023392	0.007766	0.007243	0.876618	0.729042	-0.145601	0.000000000	0.000000000	0.000000	
37355	-9.566246	-1.932632	-0.852677	-0.010334	0.004164	0.006365	0.882055	0.733161	-0.142681	0.000000000	0.000000000	0.000000	
37356	-9.585699	-1.914007	-0.831135	-0.020589	-0.004103	0.014617	0.879483	0.731282	-0.143666	0.000000000	0.000000000	0.000000	
37357	-9.583622	-1.894583	-0.847864	-0.025247	0.005893	0.002615	0.880705	0.730036	-0.141876	0.000000000	0.000000000	0.000000	
37358	-9.573955	-1.899262	-0.847875	-0.013162	0.015166	0.008213	0.879908	0.730188	-0.142722	0.000000000	0.000000000	0.000000	
37359	-9.595711	-1.885660	-0.811989	-0.016869	0.009642	0.007276	0.878561	0.728785	-0.144679	0.000000000	0.000000000	0.000000	
37360	-9.572133	-1.861095	-0.835908	-0.014099	0.006044	0.018343	0.882726	0.731025	-0.141995	0.000000000	0.000000000	0.000000	
37361	-9.557549	-1.875021	-0.855053	-0.013184	0.017027	0.013742	0.880956	0.729386	-0.141998	0.000000000	0.000000000	0.000000	
37362	-9.581770	-1.858743	-0.840680	-0.019686	0.011471	0.010025	0.881627	0.729099	-0.141162	0.000000000	0.000000000	0.000000	
37363	-9.567101	-1.879575	-0.878953	-0.015992	0.020675	0.012814	0.880216	0.729211	-0.141520	0.000000000	0.000000000	0.000000	
37364	-9.585659	-1.918452	-0.855044	-0.014105	0.020660	0.007297	0.880870	0.727894	-0.144136	0.000000000	0.000000000	0.000000	
37365	-9.612309	-1.899876	-0.835886	-0.019677	0.011466	0.008194	0.882650	0.729250	-0.140959	0.000000000	0.000000000	0.000000	
37366	-9.592776	-1.923358	-0.852649	-0.013109	-0.001370	0.002666	0.879819	0.727509	-0.145005	0.000000000	0.000000000	0.000000	
37367	-9.602068	-1.942658	-0.850257	0.000863	0.004224	0.003664	0.881901	0.730141	-0.140604	0.000000000	0.000000000	0.000000	
37368	-9.594715	-1.952256	-0.843096	-0.005654	0.004168	0.000864	0.881182	0.729423	-0.142644	0.000000000	0.000000000	0.000000	
37369	-9.580430	-1.946992	-0.864623	-0.010337	0.016947	-0.004683	0.880309	0.727534	-0.142457	0.000000000	0.000000000	0.000000	
37370	-9.614364	-1.925587	-0.881318	0.008300	0.013429	0.000947	0.881230	0.728578	-0.141591	0.000000000	0.000000000	0.000000	
37371	-9.607709	-1.887745	-0.843058	-0.001042	0.003383	0.019337	0.881152	0.728002	-0.143455	0.000000000	0.000000000	0.000000	
37372	-9.586115	-1.889615	-0.862204	0.001762	0.000633	0.017493	0.887136	0.730903	-0.139716	0.000000000	0.000000000	0.000000	
37373	-9.586165	-1.885068	-0.845467	-0.012188	0.003222	0.002673	0.882421	0.727110	-0.143511	0.000000000	0.000000000	0.000000	
37374	-9.605844	-1.856073	-0.878908	0.000812	0.007960	0.015660	0.883720	0.727640	-0.142757	0.000000000	0.000000000	0.000000	
37375	-9.598677	-1.855714	-0.898040	0.000790	0.013470	0.017507	0.883063	0.727119	-0.143335	0.000000000	0.000000000	0.000000	
37376	-9.593894	-1.855521	-0.907607	0.013848	0.014446	0.013877	0.880659	0.726519	-0.143238	0.000000000	0.000000000	0.000000	
37377	-9.596315	-1.851277	-0.871742	0.000829	0.011578	0.006436	0.885522	0.727923	-0.142103	0.000000000	0.000000000	0.000000	
37378	-9.576862	-1.869901	-0.893285	0.002671	0.013447	0.011973	0.881184	0.725862	-0.145856	0.000000000	0.000000000	0.000000	
37379	-9.591235	-1.870239	-0.881318	0.006374	0.014445	0.022144	0.884876	0.727655	-0.142414	0.000000000	0.000000000	0.000000	
37380	-9.571877	-1.879837	-0.864604	-0.010378	0.018851	0.008228	0.884697	0.727972	-0.143614	0.000000000	0.000000000	0.000000	
37381	-9.586179	-1.886945	-0.881329	0.002742	-0.003119	0.000889	0.883496	0.727609	-0.145022	0.000000000	0.000000000	0.000000	
37382	-9.596214	-1.856341	-0.852619	-0.002871	-0.001275	0.008249	0.884591	0.726493	-0.143239	0.000000000	0.000000000	0.000000	
37383	-9.577690	-1.813090	-0.847837	-0.015958	0.009665	0.010960	0.883042	0.726614	-0.143871	0.000000000	0.000000000	0.000000	
37384	-9.575217	-1.819867	-0.874140	-0.012131	-0.008781	-0.012106	0.887832	0.728616	-0.141412	0.000000000	0.000000000	0.000000	
37385	-9.597342	-1.784371	-0.862152	-0.006603	0.002349	0.003623	0.883347	0.725649	-0.145713	0.000000000	0.000000000	0.000000	
37386	-9.587810	-1.779609	-0.852596	0.000863	-0.004920	0.008257	0.884318	0.725054	-0.143801	0.000000000	0.000000000	0.000000	
37387	-9.587242	-1.817645	-0.871737	-0.001949	-0.012218	0.019304	0.884430	0.726262	-0.144046	0.000000000	0.000000000	0.000000	
37388	-9.620956	-1.808557	-0.864530	-0.008472	-0.000385	0.008233	0.884187	0.726376	-0.143797	0.000000000	0.000000000	0.000000	
37389	-9.626010	-1.791885	-0.862128	-0.011258	-0.003162	0.006374	0.887539	0.726538	-0.142511	0.000000000	0.000000000	0.000000	
37390	-9.645516	-1.770694	-0.852538	-0.015960	0.006026	0.013750	0.882849	0.725624	-0.145482	0.000000000	0.000000000	0.000000	
37391	-9.650492	-1.756831	-0.821449	-0.013142	0.006017	0.008231	0.884674	0.726148	-0.144296	0.000000000	0.000000000	0.000000	
37392	-9.607285	-1.760744	-0.847789	-0.017826	0.015140	0.006357	0.883844	0.725673	-0.145944	0.000000000	0.000000000	0.000000	
37393	-9.587772	-1.784019	-0.878896	-0.001018	-0.000347	0.008253	0.885714	0.724430	-0.143846	0.000000000	0.000000000	0.000000	
37394	-9.597271	-1.789125	-0.864544	-0.008461	0.000498	0.002689	0.887117	0.726705	-0.143464	0.000000000	0.000000000	0.000000	
37395	-9.582146	-1.836779	-0.869359	-0.023388	0.005901	0.001699	0.883603	0.723275	-0.145852	0.000000000	0.000000000	0.000000	
37396	-9.601089	-1.851573	-0.855003	-0.001022	-0.003058	0.015636	0.886428	0.725691	-0.144844	0.000000000	0.000000000	0.000000	
37397	-9.605773	-1.856797	-0.828703	-0.015914	-0.001361	0.006348	0.884101	0.723034	-0.146085	0.000000000	0.000000000	0.000000	
37398	-9.612991	-1.856638	-0.845431	-0.002914	0.011599	0.013806	0.886341	0.725247	-0.143928	0.000000000	0.000000000	0.000000	
37399	-9.606374	-1.818417	-0.833468	-0.015928	0.009617	0.000826	0.887090	0.726205	-0.144133	0.000000000	0.000000000	0.000000	
37400	-9.601821	-1.801773	-0.821512	-0.017830	0.009684	0.015574	0.886079	0.724193	-0.144221	0.000000000	0.000000000	0.000000	
37401	-9.587286	-1.813166	-0.850219	-0.010343	0.007832	0.004531	0.886055	0.724482	-0.144749	0.000000000	0.000000000	0.000000	
37402	-9.587218	-1.817886	-0.855002	-0.013140	0.003248	0.008202	0.881762	0.722372	-0.147440	0.000000000	0.000000000	0.000000	
37403	-9.577767	-1.808267	-0.850226	-0.013112	0.000451	-0.000107	0.886807	0.724645	-0.144961	0.000000000	0.000000000	0.000000	
37404	-9.587320	-1.812821	-0.874126	-0.014085	0.002344	0.011886	0.885930	0.723949	-0.144763	0.000000000	0.000000000	0.000000	
37405	-9.582348	-1.822619	-0.855009	-0.017816	0.003248	0.013713	0.885650	0.724763	-0.145303	0.000000000	0.000000000	0.000000	
37406	-9.567732	-1.838870	-0.878936	-0.012223	0.009658	0.006361	0.887245	0.724461	-0.143610	0.000000000	0.000000000	0.000000	
37407	-9.582388	-1.820191	-0.857399	-0.015903	-0.001405	-0.001042	0.883847	0.722896	-0.146104	0.000000000	0.000000000	0.000000	
37408	-9.575058	-1.827532	-0.840673	-0.025254	0.007728	0.002612	0.888671	0.725258	-0.142845	0.000000000	0.000000000	0.000000	
37409	-9.596237	-1.854085	-0.843055	-0.016881	0.020604	-0.001014	0.884254	0.721820	-0.145558	0.000000000	0.000000000	0.000000	
37410	-9.620146	-1.857134	-0.816736	-0.023368	0.004071	0.000791	0.887119	0.722343	-0.143772	0.000000000	0.000000000	0.000000	
37411	-9.606067	-1.837676	-0.826304	-0.024291	-0.001441	0.000774	0.886806	0.722929	-0.145111	0.000000000	0.000000000	0.000000	
37412	-9.629809	-1.852490	-0.814334	-0.014037	-0.003188	0.004520	0.886421	0.722263	-0.145276	0.000000000	0.000000000	0.000000	
37413	-9.632052	-1.862165	-0.809555	-0.010290	-0.001370	-0.002839	0.887484	0.723955	-0.143996	0.000000000	0.000000000	0.000000	
37414	-9.625088	-1.847646	-0.814337	-0.000972	0.004169	-0.006482	0.883238	0.722067	-0.148535	0.000000000	0.000000000	0.000000	
37415	-9.615458	-1.851946	-0.840645	-0.015905	0.005919	-0.004709	0.888187	0.723378	-0.145411	0.000000000	0.000000000	0.000000	
37416	-9.586685	-1.851546	-0.845454	-0.005638	-0.003177	-0.000994	0.887047	0.723742	-0.145351	0.000000000	0.000000000	0.000000	
37417	-9.591481	-1.851601	-0.845449	-0.005678	-0.004922	0.015609	0.887142	0.722987	-0.146147	0.000000000	0.000000000	0.000000	
37418	-9.591759	-1.832652	-0.831097	0.000917	-0.011404	-0.003739	0.888202	0.724155	-0.145005	0.000000000	0.000000000	0.000000	
37419	-9.611390	-1.804140	-0.831067	0.000879	0.003281	-0.002791	0.884868	0.721727	-0.146047	0.000000000	0.000000000	0.000000	
37420	-9.620930	-1.808832	-0.845404	0.006475	0.002394	-0.003685	0.890258	0.724444	-0.144335	0.000000000	0.000000000	0.000000	
37421	-9.630508	-1.809081	-0.835833	-0.010329	0.020599	-0.011117	0.886624	0.722457	-0.146451	0.000000000	0.000000000	0.000000	
37422	-9.630671	-1.799365	-0.845392	0.000843	0.007002	0.006444	0.889606	0.722333	-0.144929	0.000000000	0.000000000	0.000000	
37423	-9.625996	-1.790008	-0.826266	0.010177	0.018914	-0.006413	0.885769	0.721736	-0.145722	0.000000000	0.000000000	0.000000	
37424	-9.606654	-1.799434	-0.821507	-0.002860	0.004194	0.000880	0.886620	0.721800	-0.146590	0.000000000	0.000000000	0.000000	
37425	-9.604735	-1.770328	-0.845404	0.010191	0.004264	-0.000906	0.889069	0.722219	-0.145628	0.000000000	0.000000000	0.000000	
37426	-9.583080	-1.774834	-0.847817	0.013874	0.015327	0.006495	0.886334	0.720903	-0.147413	0.000000000	0.000000000	0.000000	
37427	-9.582861	-1.789166	-0.850213	0.000850	-0.001243	0.010104	0.888824	0.723128	-0.145371	0.000000000	0.000000000	0.000000	
37428	-9.606955	-1.782259	-0.850188	0.019510	-0.000236	0.004667	0.886986	0.723280	-0.146816	0.000000000	0.000000000	0.000000	
37429	-9.621169	-1.792278	-0.831053	0.013896	0.006173	0.008345	0.887130	0.721282	-0.146561	0.000000000	0.000000000	0.000000	
37430	-9.650400	-1.763808	-0.835796	0.015735	0.017193	0.007456	0.887741	0.722117	-0.147041	0.000000000	0.000000000	0.000000	
37431	-9.660733	-1.714049	-0.807078	0.017631	0.010764	0.002849	0.886715	0.721045	-0.147386	0.000000000	0.000000000	0.000000	
37432	-9.663111	-1.714283	-0.792731	0.010152	0.006203	0.015724	0.891657	0.722760	-0.144390	0.000000000	0.000000000	0.000000	
37433	-9.641708	-1.704112	-0.816654	0.008287	0.017129	0.003728	0.886194	0.719593	-0.147832	0.000000000	0.000000000	0.000000	
37434	-9.607708	-1.732252	-0.831042	0.010165	-0.002983	0.015690	0.888877	0.721229	-0.147239	0.000000000	0.000000000	0.000000	
37435	-9.602658	-1.748889	-0.835835	0.006385	0.014439	0.019381	0.888356	0.721627	-0.147535	0.000000000	0.000000000	0.000000	
37436	-9.597369	-1.782080	-0.854979	0.023217	0.009868	0.003770	0.888099	0.718585	-0.147847	0.000000000	0.000000000	0.000000	
37437	-9.567958	-1.822454	-0.855022	0.000846	0.013369	-0.000953	0.889819	0.721195	-0.145985	0.000000000	0.000000000	0.000000	
37438	-9.584766	-1.822440	-0.869351	0.006424	0.018909	-0.000914	0.887220	0.718816	-0.147639	0.000000000	0.000000000	0.000000	
37439	-9.606242	-1.827822	-0.845426	0.013918	0.004294	0.000958	0.891059	0.722316	-0.146552	0.000000000	0.000000000	0.000000	
37440	-9.620959	-1.806507	-0.840622	0.016717	0.001574	0.002818	0.889228	0.720215	-0.148019	0.000000000	0.000000000	0.000000	
37441	-9.630802	-1.789960	-0.833434	-0.001962	0.014309	0.003673	0.887622	0.720132	-0.149981	0.000000000	0.000000000	0.000000	
37442	-9.631380	-1.751821	-0.821464	-0.002902	0.017062	0.004594	0.889756	0.721263	-0.147444	0.000000000	0.000000000	0.000000	
37443	-9.617010	-1.751449	-0.835822	0.002682	0.012541	0.011066	0.887259	0.719707	-0.149612	0.000000000	0.000000000	0.000000	
37444	-9.598082	-1.736517	-0.859741	0.000817	0.014340	0.007361	0.891991	0.721499	-0.145571	0.000000000	0.000000000	0.000000	
37445	-9.586387	-1.717223	-0.859744	0.001781	-0.003068	0.010107	0.888162	0.721035	-0.149142	0.000000000	0.000000000	0.000000	
37446	-9.588805	-1.717044	-0.874086	-0.006623	0.011506	0.000861	0.888134	0.719084	-0.149957	0.000000000	0.000000000	0.000000	
37447	-9.588491	-1.738387	-0.888439	-0.010323	-0.001363	-0.000094	0.889080	0.717459	-0.148718	0.000000000	0.000000000	0.000000	
37448	-9.617720	-1.707936	-0.864493	0.004526	0.018968	0.010158	0.889360	0.718495	-0.148028	0.000000000	0.000000000	0.000000	
37449	-9.610863	-1.684253	-0.840582	-0.015953	0.013306	0.003597	0.892704	0.721175	-0.146718	0.000000000	0.000000000	0.000000	
37450	-9.613446	-1.672309	-0.840575	-0.016854	-0.003193	0.006341	0.887711	0.717798	-0.151057	0.000000000	0.000000000	0.000000	
37451	-9.622868	-1.684253	-0.850134	-0.019669	0.007778	0.002655	0.888072	0.720067	-0.148363	0.000000000	0.000000000	0.000000	
37452	-9.646708	-1.694038	-0.854897	-0.008501	0.006065	0.011939	0.887730	0.718967	-0.150515	0.000000000	0.000000000	0.000000	
37453	-9.655973	-1.713614	-0.833380	-0.002954	0.014424	0.024893	0.890486	0.719203	-0.148342	0.000000000	0.000000000	0.000000	
37454	-9.655450	-1.747171	-0.831003	-0.013131	0.002339	0.006384	0.891676	0.719181	-0.147204	0.000000000	0.000000000	0.000000	
37455	-9.623240	-1.813787	-0.835841	-0.019652	-0.001369	0.008182	0.888415	0.719722	-0.149270	0.000000000	0.000000000	0.000000	
37456	-9.610600	-1.856542	-0.850215	-0.008409	-0.003243	-0.011144	0.891940	0.719705	-0.146916	0.000000000	0.000000000	0.000000	
37457	-9.610036	-1.892527	-0.845448	0.000856	0.009716	0.000906	0.888740	0.717678	-0.150724	0.000000000	0.000000000	0.000000	
37458	-9.602649	-1.904485	-0.840678	0.005556	-0.004025	-0.000936	0.891538	0.719058	-0.147479	0.000000000	0.000000000	0.000000	
37459	-9.585692	-1.914076	-0.826354	-0.011193	-0.010580	-0.006562	0.890979	0.718836	-0.148710	0.000000000	0.000000000	0.000000	
37460	-9.590685	-1.900041	-0.807218	-0.001926	0.015160	-0.006486	0.890980	0.718439	-0.148714	0.000000000	0.000000000	0.000000	
37461	-9.596075	-1.861785	-0.807197	-0.000991	0.006943	-0.000956	0.891719	0.718879	-0.149189	0.000000000	0.000000000	0.000000	
37462	-9.606181	-1.828442	-0.802393	-0.014063	0.009644	0.003603	0.886433	0.716190	-0.151423	0.000000000	0.000000000	0.000000	
37463	-9.620946	-1.804629	-0.804760	-0.012201	0.015138	-0.000988	0.890651	0.719693	-0.147400	0.000000000	0.000000000	0.000000	
37464	-9.620895	-1.809177	-0.821497	-0.017773	0.004097	-0.001028	0.889778	0.718473	-0.150117	0.000000000	0.000000000	0.000000	
37465	-9.630427	-1.813938	-0.831053	-0.025212	0.009487	-0.013966	0.889830	0.718152	-0.148926	0.000000000	0.000000000	0.000000	
37466	-9.620946	-1.806645	-0.831059	-0.027975	-0.001557	-0.017686	0.889951	0.718427	-0.149048	0.000000000	0.000000000	0.000000	
37467	-9.606546	-1.808598	-0.850199	-0.017732	-0.007870	-0.008428	0.887294	0.717423	-0.148971	0.000000000	0.000000000	0.000000	
37468	-9.606647	-1.801518	-0.843024	-0.031750	0.009457	-0.011240	0.891966	0.720470	-0.146245	0.000000000	0.000000000	0.000000	
37469	-9.594934	-1.784447	-0.854982	-0.026135	0.002137	-0.013995	0.889903	0.717422	-0.150252	0.000000000	0.000000000	0.000000	
37470	-9.583168	-1.769908	-0.857378	-0.017792	0.005933	0.000802	0.889393	0.718856	-0.147228	0.000000000	0.000000000	0.000000	
37471	-9.583084	-1.774800	-0.850208	-0.008456	0.009619	-0.006529	0.890375	0.719314	-0.147951	0.000000000	0.000000000	0.000000	
37472	-9.588157	-1.755906	-0.835851	-0.017808	0.011453	0.003578	0.889599	0.719706	-0.148264	0.000000000	0.000000000	0.000000	
37473	-9.602918	-1.732128	-0.835828	-0.002860	0.003269	-0.000969	0.891362	0.718050	-0.148692	0.000000000	0.000000000	0.000000	
37474	-9.588150	-1.755975	-0.831069	-0.008469	0.004177	0.004535	0.885646	0.716461	-0.152003	0.000000000	0.000000000	0.000000	
37475	-9.607417	-1.751338	-0.835831	-0.003821	0.011537	0.002729	0.891742	0.720439	-0.148510	0.000000000	0.000000000	0.000000	
37476	-9.614613	-1.751421	-0.835824	0.000854	0.013367	-0.003702	0.890365	0.719061	-0.148219	0.000000000	0.000000000	0.000000	
37477	-9.612096	-1.758646	-0.831048	-0.012188	0.004140	0.000838	0.890438	0.717933	-0.149549	0.000000000	0.000000000	0.000000	
37478	-9.601878	-1.799172	-0.835855	-0.015940	0.015115	-0.000092	0.889959	0.719342	-0.148773	0.000000000	0.000000000	0.000000	
37479	-9.601648	-1.813607	-0.831080	-0.019653	0.005935	0.002647	0.887927	0.718366	-0.148919	0.000000000	0.000000000	0.000000	
37480	-9.615802	-1.828277	-0.821510	-0.017744	0.000387	-0.008414	0.890565	0.719382	-0.146482	0.000000000	0.000000000	0.000000	
37481	-9.616187	-1.804195	-0.831063	-0.017737	0.002192	-0.013946	0.889098	0.717176	-0.148323	0.000000000	0.000000000	0.000000	
37482	-9.623489	-1.795114	-0.802363	-0.016802	0.000381	-0.011173	0.890800	0.718220	-0.147007	0.000000000	0.000000000	0.000000	
37483	-9.630610	-1.799985	-0.802359	-0.030814	0.013133	-0.012142	0.888675	0.719722	-0.149120	0.000000000	0.000000000	0.000000	
37484	-9.621172	-1.790228	-0.807145	-0.023345	0.012240	-0.015803	0.889320	0.718670	-0.148955	0.000000000	0.000000000	0.000000	
37485	-9.616737	-1.768348	-0.826266	-0.028961	0.000370	0.000758	0.890439	0.718717	-0.146497	0.000000000	0.000000000	0.000000	
37486	-9.602246	-1.775262	-0.833455	-0.019659	0.011420	-0.001036	0.886211	0.718526	-0.150489	0.000000000	0.000000000	0.000000	
37487	-9.606823	-1.789649	-0.835847	-0.010337	0.015131	-0.003754	0.890402	0.719946	-0.147282	0.000000000	0.000000000	0.000000	
37488	-9.587644	-1.789359	-0.840646	-0.012178	0.009587	-0.008389	0.888900	0.720024	-0.149764	0.000000000	0.000000000	0.000000	
37489	-9.575875	-1.774855	-0.840651	-0.013108	0.004096	-0.004715	0.888204	0.718480	-0.148370	0.000000000	0.000000000	0.000000	
37490	-9.576014	-1.765381	-0.833475	-0.008438	0.009589	-0.012066	0.889751	0.719154	-0.147730	0.000000000	0.000000000	0.000000	
37491	-9.587904	-1.770583	-0.814340	-0.021512	0.014128	-0.006582	0.890063	0.719767	-0.149291	0.000000000	0.000000000	0.000000	
37492	-9.595102	-1.770631	-0.816724	-0.021493	-0.000516	-0.001062	0.892103	0.720858	-0.145967	0.000000000	0.000000000	0.000000	
37493	-9.616528	-1.780561	-0.809536	-0.019642	0.009574	-0.003799	0.888555	0.719315	-0.149000	0.000000000	0.000000000	0.000000	
37494	-9.611511	-1.794838	-0.811937	-0.027079	0.009483	-0.012138	0.890361	0.720254	-0.148208	0.000000000	0.000000000	0.000000	
37495	-9.635663	-1.785329	-0.826255	-0.017774	0.015053	-0.011156	0.889085	0.719700	-0.148431	0.000000000	0.000000000	0.000000	
37496	-9.638217	-1.775710	-0.831031	-0.015929	0.009625	0.000838	0.889337	0.718784	-0.148556	0.000000000	0.000000000	0.000000	
37497	-9.638233	-1.773523	-0.816685	-0.005645	0.004161	-0.003732	0.891265	0.721450	-0.147738	0.000000000	0.000000000	0.000000	
37498	-9.636035	-1.761385	-0.826245	-0.021491	0.004049	-0.006575	0.887876	0.718421	-0.150113	0.000000000	0.000000000	0.000000	
37499	-9.631454	-1.747032	-0.821463	-0.017786	0.016903	-0.008389	0.891299	0.721281	-0.146943	0.000000000	0.000000000	0.000000	
37500	-9.607248	-1.761123	-0.821491	-0.020598	0.015085	-0.001034	0.891029	0.719178	-0.147512	0.000000000	0.000000000	0.000000	
37501	-9.609201	-1.789884	-0.821500	-0.028978	0.015014	-0.004762	0.888203	0.718877	-0.148366	0.000000000	0.000000000	0.000000	
37502	-9.607077	-1.772957	-0.831059	-0.015886	0.009531	-0.015778	0.889167	0.719752	-0.149484	0.000000000	0.000000000	0.000000	
37503	-9.616558	-1.780251	-0.831053	-0.021563	0.024272	0.002666	0.887529	0.718243	-0.149344	0.000000000	0.000000000	0.000000	
37504	-9.633039	-1.801718	-0.850172	-0.030870	0.015050	0.003540	0.892770	0.722029	-0.145117	0.000000000	0.000000000	0.000000	
37505	-9.625429	-1.828043	-0.845408	-0.024301	0.004964	-0.002901	0.889022	0.718967	-0.146987	0.000000000	0.000000000	0.000000	
37506	-9.625557	-1.818672	-0.831060	-0.009346	0.006811	-0.017587	0.889810	0.718563	-0.146409	0.000000000	0.000000000	0.000000	
37507	-9.620909	-1.809039	-0.831060	-0.008491	0.017013	0.002720	0.887919	0.721149	-0.148892	0.000000000	0.000000000	0.000000	
37508	-9.596866	-1.813414	-0.840647	-0.010304	0.002282	-0.004695	0.890411	0.720597	-0.147010	0.000000000	0.000000000	0.000000	
37509	-9.585030	-1.803630	-0.845436	-0.012153	-0.003245	-0.006561	0.891032	0.721949	-0.147219	0.000000000	0.000000000	0.000000	
37510	-9.583084	-1.774800	-0.850208	-0.008475	0.009658	0.000850	0.886385	0.717950	-0.149424	0.000000000	0.000000000	0.000000	
37511	-9.597129	-1.794603	-0.816732	-0.023377	0.016860	-0.008428	0.889800	0.719762	-0.146530	0.000000000	0.000000000	0.000000	
37512	-9.594653	-1.799399	-0.814346	-0.017793	0.013264	-0.001028	0.888230	0.719244	-0.147699	0.000000000	0.000000000	0.000000	
37513	-9.603878	-1.823419	-0.816737	-0.015936	0.016945	-0.001011	0.890094	0.719990	-0.145581	0.000000000	0.000000000	0.000000	
37514	-9.605858	-1.851904	-0.835873	-0.020603	0.024223	-0.006557	0.890103	0.720773	-0.145308	0.000000000	0.000000000	0.000000	
37515	-9.610651	-1.851994	-0.833478	-0.012206	0.019699	-0.004677	0.887487	0.719997	-0.147212	0.000000000	0.000000000	0.000000	
37516	-9.615552	-1.846950	-0.854988	-0.008461	0.021507	-0.013880	0.890128	0.719953	-0.144785	0.000000000	0.000000000	0.000000	
37517	-9.625760	-1.808543	-0.869307	-0.018730	0.020550	-0.010236	0.888480	0.718991	-0.147817	0.000000000	0.000000000	0.000000	
37518	-9.611438	-1.803658	-0.864537	-0.015910	0.013217	-0.012083	0.891097	0.720822	-0.145770	0.000000000	0.000000000	0.000000	
37519	-9.611468	-1.799317	-0.833456	-0.004764	0.013385	0.006419	0.891088	0.722021	-0.145891	0.000000000	0.000000000	0.000000	
37520	-9.599942	-1.770239	-0.847799	-0.017786	0.011406	-0.005641	0.889815	0.720406	-0.146125	0.000000000	0.000000000	0.000000	
37521	-9.616153	-1.808571	-0.859753	-0.008478	0.015147	-0.002819	0.891405	0.720242	-0.144564	0.000000000	0.000000000	0.000000	
37522	-9.611296	-1.813166	-0.869322	-0.015947	0.027897	-0.011143	0.885960	0.718641	-0.147460	0.000000000	0.000000000	0.000000	
37523	-9.601970	-1.794211	-0.847807	-0.010377	0.026160	0.000869	0.890932	0.722048	-0.146563	0.000000000	0.000000000	0.000000	
37524	-9.611329	-1.808791	-0.840632	0.000815	0.021663	0.004609	0.889436	0.721584	-0.146007	0.000000000	0.000000000	0.000000	
37525	-9.610969	-1.832632	-0.847814	-0.004733	0.007841	-0.000967	0.890997	0.719336	-0.145263	0.000000000	0.000000000	0.000000	
37526	-9.606533	-1.808736	-0.840636	-0.004786	0.014340	0.013797	0.890443	0.721355	-0.146206	0.000000000	0.000000000	0.000000	
37527	-9.594646	-1.803499	-0.862162	-0.008504	0.015192	0.006396	0.887318	0.718850	-0.148293	0.000000000	0.000000000	0.000000	
37528	-9.613708	-1.813056	-0.878883	-0.011318	0.017032	0.010082	0.892820	0.720522	-0.144070	0.000000000	0.000000000	0.000000	
37529	-9.596511	-1.837186	-0.852611	-0.010335	0.016946	-0.006523	0.888419	0.719445	-0.146229	0.000000000	0.000000000	0.000000	
37530	-9.577710	-1.812883	-0.862181	-0.008467	0.022417	-0.013895	0.890235	0.718920	-0.145318	0.000000000	0.000000000	0.000000	
37531	-9.577579	-1.822289	-0.874139	-0.002887	0.016996	-0.004652	0.890489	0.719191	-0.145298	0.000000000	0.000000000	0.000000	
37532	-9.601733	-1.810730	-0.864549	-0.015940	0.016928	-0.003780	0.891094	0.718316	-0.146060	0.000000000	0.000000000	0.000000	
37533	-9.582888	-1.788891	-0.869339	-0.012252	0.026153	0.002697	0.892698	0.718664	-0.144096	0.000000000	0.000000000	0.000000	
37534	-9.606871	-1.789167	-0.869317	0.006433	0.014329	-0.000911	0.887950	0.716359	-0.148541	0.000000000	0.000000000	0.000000	
37535	-9.621180	-1.794190	-0.864524	-0.002861	0.002352	-0.000962	0.892014	0.719625	-0.145191	0.000000000	0.000000000	0.000000	
37536	-9.595048	-1.775213	-0.831071	-0.014068	0.015111	-0.002854	0.890108	0.719050	-0.145325	0.000000000	0.000000000	0.000000	
37537	-9.592643	-1.775255	-0.826292	-0.011302	0.020670	0.004544	0.891116	0.718424	-0.145528	0.000000000	0.000000000	0.000000	
37538	-9.602345	-1.770232	-0.850188	0.002691	0.010687	0.008290	0.890967	0.718180	-0.146070	0.000000000	0.000000000	0.000000	
37539	-9.616630	-1.779527	-0.881258	-0.001046	0.013408	0.006436	0.889133	0.718723	-0.147379	0.000000000	0.000000000	0.000000	
37540	-9.638227	-1.779638	-0.890800	-0.002931	0.017089	0.010130	0.894884	0.720142	-0.143273	0.000000000	0.000000000	0.000000	
37541	-9.635761	-1.782315	-0.869287	-0.012235	0.009700	0.011000	0.891217	0.717662	-0.146191	0.000000000	0.000000000	0.000000	
37542	-9.614012	-1.793832	-0.883656	-0.014137	0.015230	0.019291	0.893565	0.717258	-0.144714	0.000000000	0.000000000	0.000000	
37543	-9.604351	-1.798441	-0.888449	-0.002890	0.010612	0.000885	0.889589	0.718652	-0.145629	0.000000000	0.000000000	0.000000	
37544	-9.602169	-1.784116	-0.883664	-0.010373	0.018831	0.002704	0.889804	0.718436	-0.146543	0.000000000	0.000000000	0.000000	
37545	-9.587807	-1.783675	-0.902803	-0.021546	0.018720	-0.004734	0.892173	0.718670	-0.144529	0.000000000	0.000000000	0.000000	
37546	-9.602618	-1.755348	-0.886042	-0.025283	0.020546	-0.002898	0.890525	0.717443	-0.147563	0.000000000	0.000000000	0.000000	
37547	-9.586083	-1.736448	-0.854971	-0.025276	0.009588	0.006307	0.892945	0.719471	-0.144204	0.000000000	0.000000000	0.000000	
37548	-9.597893	-1.750539	-0.883654	-0.015960	0.016953	0.000829	0.890894	0.719712	-0.147648	0.000000000	0.000000000	0.000000	
37549	-9.602669	-1.750801	-0.869305	-0.030868	0.005897	0.008128	0.890966	0.718445	-0.146068	0.000000000	0.000000000	0.000000	
37550	-9.609984	-1.743597	-0.876468	-0.023378	0.004051	-0.002906	0.892014	0.717909	-0.145341	0.000000000	0.000000000	0.000000	
37551	-9.626148	-1.784427	-0.881251	-0.003815	0.009684	-0.000956	0.890204	0.718029	-0.146123	0.000000000	0.000000000	0.000000	
37552	-9.621318	-1.784716	-0.857348	-0.017792	0.004116	0.002660	0.894473	0.719761	-0.141055	0.000000000	0.000000000	0.000000	
37553	-9.609320	-1.786662	-0.878877	-0.010325	-0.001345	0.002683	0.891042	0.715986	-0.144499	0.000000000	0.000000000	0.000000	
37554	-9.592116	-1.812877	-0.874122	-0.019699	0.016957	0.006345	0.891823	0.717570	-0.143901	0.000000000	0.000000000	0.000000	
37555	-9.591894	-1.827243	-0.874128	-0.010339	0.013290	-0.003763	0.890303	0.717262	-0.143874	0.000000000	0.000000000	0.000000	
37556	-9.591908	-1.827105	-0.883690	-0.008486	0.022448	-0.008355	0.892299	0.716956	-0.144670	0.000000000	0.000000000	0.000000	
37557	-9.584415	-1.846178	-0.883705	-0.015957	0.009649	0.008195	0.893902	0.717834	-0.142700	0.000000000	0.000000000	0.000000	
37558	-9.601567	-1.820480	-0.852599	-0.017796	0.003213	0.006342	0.890138	0.716639	-0.144818	0.000000000	0.000000000	0.000000	
37559	-9.577140	-1.850953	-0.878932	-0.014045	0.011390	-0.011167	0.892869	0.719280	-0.143020	0.000000000	0.000000000	0.000000	
37560	-9.596400	-1.846385	-0.878913	-0.015911	0.013212	-0.012088	0.891392	0.718670	-0.144978	0.000000000	0.000000000	0.000000	
37561	-9.599142	-1.822744	-0.859775	-0.017829	0.018794	0.004514	0.891447	0.715573	-0.143946	0.000000000	0.000000000	0.000000	
37562	-9.594458	-1.817521	-0.886075	-0.021532	0.015052	-0.004734	0.893532	0.717813	-0.142461	0.000000000	0.000000000	0.000000	
37563	-9.620855	-1.817652	-0.898004	-0.023383	0.004059	-0.001056	0.891555	0.716257	-0.144329	0.000000000	0.000000000	0.000000	
37564	-9.602024	-1.793659	-0.886058	-0.015961	0.007830	0.010044	0.896240	0.718894	-0.141342	0.000000000	0.000000000	0.000000	
37565	-9.599365	-1.812408	-0.912366	-0.019678	0.016898	-0.004722	0.893611	0.716811	-0.143657	0.000000000	0.000000000	0.000000	
37566	-9.616295	-1.803093	-0.907565	-0.014085	0.009638	0.002681	0.893333	0.717094	-0.144202	0.000000000	0.000000000	0.000000	
37567	-9.623706	-1.788878	-0.902771	-0.008454	0.002297	-0.004678	0.892404	0.718568	-0.145043	0.000000000	0.000000000	0.000000	
37568	-9.616384	-1.798166	-0.917126	0.002709	0.007886	-0.000933	0.892205	0.717314	-0.143878	0.000000000	0.000000000	0.000000	
37569	-9.616670	-1.779114	-0.909946	-0.000983	0.002312	-0.010181	0.895307	0.717861	-0.142474	0.000000000	0.000000000	0.000000	
37570	-9.606898	-1.788891	-0.888443	0.004564	0.006101	0.006450	0.891576	0.715846	-0.146847	0.000000000	0.000000000	0.000000	
37571	-9.611414	-1.807930	-0.900400	0.015760	0.004325	0.004656	0.892936	0.716839	-0.144628	0.000000000	0.000000000	0.000000	
37572	-9.587708	-1.788705	-0.886070	0.009241	0.006096	0.000929	0.891525	0.716950	-0.144986	0.000000000	0.000000000	0.000000	
37573	-9.568776	-1.773807	-0.907598	0.006435	0.011558	-0.002776	0.892802	0.716974	-0.144768	0.000000000	0.000000000	0.000000	
37574	-9.564330	-1.750015	-0.893248	-0.002870	-0.003138	0.003619	0.895644	0.717655	-0.143512	0.000000000	0.000000000	0.000000	
37575	-9.586853	-1.688284	-0.874076	-0.008483	0.010569	-0.000994	0.891139	0.716550	-0.145148	0.000000000	0.000000000	0.000000	
37576	-9.586904	-1.685751	-0.883638	-0.015942	0.009606	-0.001030	0.895870	0.717559	-0.144159	0.000000000	0.000000000	0.000000	
37577	-9.608984	-1.652719	-0.866869	-0.019712	0.011503	0.013722	0.892716	0.715350	-0.146907	0.000000000	0.000000000	0.000000	
37578	-9.608876	-1.659868	-0.869263	-0.021513	0.006797	-0.006585	0.895876	0.717420	-0.144028	0.000000000	0.000000000	0.000000	
37579	-9.628069	-1.660020	-0.874027	-0.029006	0.016864	-0.002911	0.895101	0.717812	-0.144341	0.000000000	0.000000000	0.000000	
37580	-9.646803	-1.689043	-0.869239	-0.040177	-0.000573	0.007171	0.894142	0.717196	-0.143088	0.000000000	0.000000000	0.000000	
37581	-9.650945	-1.732060	-0.878816	-0.043871	0.005720	-0.012207	0.893422	0.716743	-0.145126	0.000000000	0.000000000	0.000000	
37582	-9.654991	-1.780072	-0.874050	-0.053219	0.013937	-0.008548	0.890480	0.713661	-0.148927	0.000000000	0.000000000	0.000000	
37583	-9.650249	-1.773420	-0.833409	-0.051340	0.011198	-0.008544	0.896627	0.717848	-0.144238	0.000000000	0.000000000	0.000000	
37584	-9.616170	-1.806383	-0.845408	-0.071819	0.010996	-0.021567	0.893715	0.717103	-0.144176	0.000000000	0.000000000	0.000000	
37585	-9.611535	-1.794597	-0.828672	-0.058781	0.006548	-0.010444	0.893947	0.716869	-0.144692	0.000000000	0.000000000	0.000000	
37586	-9.587314	-1.812890	-0.869345	-0.065318	0.009243	-0.012327	0.895305	0.716542	-0.142619	0.000000000	0.000000000	0.000000	
37587	-9.548800	-1.821957	-0.874166	-0.066232	-0.005417	-0.006830	0.891926	0.716146	-0.144570	0.000000000	0.000000000	0.000000	
37588	-9.534994	-1.783584	-0.866991	-0.081139	-0.000967	-0.015201	0.897412	0.719288	-0.140598	0.000000000	0.000000000	0.000000	
37589	-9.519804	-1.835924	-0.878980	-0.081170	0.009131	-0.012428	0.892799	0.715252	-0.142006	0.000000000	0.000000000	0.000000	
37590	-9.522152	-1.838483	-0.869416	-0.086741	0.006317	-0.017990	0.894352	0.717770	-0.141083	0.000000000	0.000000000	0.000000	
37591	-9.509856	-1.859585	-0.890952	-0.099774	0.004359	-0.025438	0.893837	0.720011	-0.141095	0.000000000	0.000000000	0.000000	
37592	-9.518987	-1.888601	-0.879002	-0.094187	-0.001059	-0.016190	0.892592	0.718630	-0.140663	0.000000000	0.000000000	0.000000	
37593	-9.547307	-1.917803	-0.869424	-0.075572	0.012827	-0.014229	0.894625	0.719209	-0.140521	0.000000000	0.000000000	0.000000	
37594	-9.546689	-1.958371	-0.879004	-0.079271	0.003611	-0.017947	0.890479	0.716023	-0.142816	0.000000000	0.000000000	0.000000	
37595	-9.563855	-1.934551	-0.883760	-0.084847	-0.001025	-0.021662	0.892882	0.718069	-0.139855	0.000000000	0.000000000	0.000000	
37596	-9.557119	-1.903582	-0.867019	-0.077419	0.007305	-0.016086	0.893158	0.718316	-0.139305	0.000000000	0.000000000	0.000000	
37597	-9.580649	-1.932660	-0.862227	-0.069921	0.001802	-0.025271	0.894013	0.718904	-0.140035	0.000000000	0.000000000	0.000000	
37598	-9.590569	-1.909274	-0.831129	-0.072720	0.005459	-0.025275	0.893418	0.718448	-0.139153	0.000000000	0.000000000	0.000000	
37599	-9.583747	-1.885247	-0.831125	-0.068094	-0.003573	-0.004052	0.891370	0.718942	-0.139551	0.000000000	0.000000000	0.000000	
37600	-9.576865	-1.863821	-0.816779	-0.069942	0.007339	-0.019732	0.895300	0.720495	-0.136492	0.000000000	0.000000000	0.000000	
37601	-9.591205	-1.866519	-0.807204	-0.069951	0.016494	-0.023404	0.892867	0.718474	-0.137205	0.000000000	0.000000000	0.000000	
37602	-9.582114	-1.833059	-0.795245	-0.075510	0.001785	-0.023452	0.893290	0.719891	-0.136104	0.000000000	0.000000000	0.000000	
37603	-9.587205	-1.813993	-0.792842	-0.075517	0.010929	-0.028973	0.894186	0.719641	-0.135914	0.000000000	0.000000000	0.000000	
37604	-9.621631	-1.757327	-0.764098	-0.080151	0.002647	-0.030836	0.892742	0.719657	-0.137069	0.000000000	0.000000000	0.000000	
37605	-9.596946	-1.802510	-0.766530	-0.088549	0.016298	-0.040092	0.894737	0.718948	-0.134957	0.000000000	0.000000000	0.000000	
37606	-9.603017	-1.876544	-0.785680	-0.099763	0.025409	-0.038285	0.891262	0.717325	-0.136265	0.000000000	0.000000000	0.000000	
37607	-9.570168	-1.985950	-0.812053	-0.099762	0.030871	-0.043825	0.896092	0.719681	-0.132874	0.000000000	0.000000000	0.000000	
37608	-9.552259	-2.057659	-0.807317	-0.102571	0.030882	-0.037388	0.892629	0.719763	-0.133767	0.000000000	0.000000000	0.000000	
37609	-9.539805	-2.086426	-0.795386	-0.073666	0.032884	-0.038178	0.894104	0.719186	-0.131953	0.000000000	0.000000000	0.000000	
37610	-9.543633	-2.148771	-0.793017	-0.080142	0.027271	-0.051126	0.895149	0.719445	-0.131219	0.000000000	0.000000000	0.000000	
37611	-9.557955	-2.149626	-0.745190	-0.094084	0.021648	-0.058569	0.894395	0.719944	-0.131000	0.000000000	0.000000000	0.000000	
37612	-9.549263	-2.089930	-0.726048	-0.084766	0.016242	-0.051157	0.897843	0.722116	-0.127306	0.000000000	0.000000000	0.000000	
37613	-9.525845	-2.053668	-0.730837	-0.095945	0.027098	-0.065965	0.892837	0.720463	-0.128849	0.000000000	0.000000000	0.000000	
37614	-9.533272	-2.041297	-0.764295	-0.086658	0.027214	-0.054851	0.894552	0.720700	-0.127276	0.000000000	0.000000000	0.000000	
37615	-9.572171	-2.010163	-0.795326	-0.097873	0.029018	-0.049352	0.893564	0.720380	-0.126684	0.000000000	0.000000000	0.000000	
37616	-9.610672	-2.005265	-0.833539	-0.099688	0.030721	-0.073327	0.893966	0.721160	-0.126120	0.000000000	0.000000000	0.000000	
37617	-9.660853	-2.015767	-0.809589	-0.107166	0.041693	-0.073327	0.895819	0.721652	-0.124270	0.000000000	0.000000000	0.000000	
37618	-9.682279	-2.025696	-0.802401	-0.109074	0.042692	-0.056722	0.892071	0.720439	-0.125989	0.000000000	0.000000000	0.000000	
37619	-9.689190	-2.044797	-0.811965	-0.110939	0.043593	-0.057649	0.896548	0.722756	-0.121960	0.000000000	0.000000000	0.000000	
37620	-9.704619	-1.977919	-0.811924	-0.105389	0.045541	-0.043779	0.896011	0.722774	-0.122658	0.000000000	0.000000000	0.000000	
37621	-9.770414	-1.756093	-0.802211	-0.083058	0.038470	-0.023367	0.892608	0.721602	-0.122236	0.000000000	0.000000000	0.000000	
37622	-9.845828	-1.689629	-0.821239	-0.072791	0.025734	-0.018694	0.894820	0.722128	-0.120891	0.000000000	0.000000000	0.000000	
37623	-9.915949	-1.805838	-0.790141	-0.069004	0.016552	-0.026958	0.894174	0.721860	-0.121202	0.000000000	0.000000000	0.000000	
37624	-9.873413	-1.924159	-0.854778	-0.056919	0.009361	-0.010324	0.898709	0.723453	-0.115853	0.000000000	0.000000000	0.000000	
37625	-9.895208	-2.071718	-0.936101	-0.025204	0.000372	-0.011101	0.896025	0.722883	-0.119347	0.000000000	0.000000000	0.000000	
37626	-9.901225	-2.146304	-0.917000	0.045705	-0.012063	-0.015395	0.896634	0.722531	-0.119972	0.000000000	0.000000000	0.000000	
37627	-9.840024	-2.061247	-0.787924	0.143512	-0.007588	0.025629	0.897437	0.721325	-0.122047	0.000000000	0.000000000	0.000000	
37628	-9.686376	-1.915684	-0.795181	0.220863	-0.036309	0.060940	0.898416	0.720862	-0.122913	0.000000000	0.000000000	0.000000	
37629	-9.547868	-1.883868	-0.898099	0.299041	-0.021029	0.091702	0.901654	0.721015	-0.124282	0.000000000	0.000000000	0.000000	
37630	-9.455992	-1.938769	-1.003398	0.358707	-0.012511	0.078113	0.898309	0.717684	-0.128642	0.000000000	0.000000000	0.000000	
37631	-9.391834	-2.063267	-1.120654	0.381894	0.008811	0.098513	0.901177	0.717682	-0.129773	0.000000000	0.000000000	0.000000	
37632	-9.424370	-2.124651	-1.041754	0.399682	0.019775	0.069107	0.900731	0.715638	-0.134456	0.000000000	0.000000000	0.000000	
37633	-9.398073	-2.264872	-0.929471	0.386684	0.031510	0.049685	0.903611	0.715624	-0.135321	0.000000000	0.000000000	0.000000	
37634	-9.396388	-2.366712	-0.841057	0.369052	0.027635	0.031153	0.905070	0.715204	-0.136816	0.000000000	0.000000000	0.000000	
37635	-9.361172	-2.471749	-0.836350	0.334551	0.035649	0.027301	0.904155	0.712840	-0.140606	0.000000000	0.000000000	0.000000	
37636	-9.322061	-2.523192	-0.891394	0.284228	0.044389	0.005845	0.908025	0.713665	-0.139015	0.000000000	0.000000000	0.000000	
37637	-9.309666	-2.393831	-0.884181	0.225497	0.047660	-0.002732	0.904796	0.710084	-0.143635	0.000000000	0.000000000	0.000000	
37638	-9.269641	-2.191961	-0.900873	0.183557	0.047339	-0.014939	0.908670	0.713547	-0.141752	0.000000000	0.000000000	0.000000	
37639	-9.235006	-1.951836	-0.917544	0.146235	0.061740	-0.024338	0.908693	0.712341	-0.144277	0.000000000	0.000000000	0.000000	
37640	-9.278397	-1.784489	-0.931780	0.090235	0.073378	-0.017190	0.907379	0.711035	-0.145437	0.000000000	0.000000000	0.000000	
37641	-9.306232	-1.689325	-0.910200	0.051193	0.039136	-0.032161	0.910511	0.711021	-0.143374	0.000000000	0.000000000	0.000000	
37642	-9.394252	-1.584482	-0.943546	0.010174	0.031570	-0.032327	0.906137	0.709528	-0.147918	0.000000000	0.000000000	0.000000	
37643	-9.473000	-1.615625	-1.005643	-0.015954	0.042402	-0.037939	0.910906	0.710356	-0.143090	0.000000000	0.000000000	0.000000	
37644	-9.525784	-1.775549	-1.084552	-0.030850	0.038600	-0.046292	0.908530	0.710791	-0.145230	0.000000000	0.000000000	0.000000	
37645	-9.580665	-1.950661	-1.108479	-0.038258	0.038466	-0.063829	0.910363	0.710645	-0.143918	0.000000000	0.000000000	0.000000	
37646	-9.608961	-1.982119	-1.108465	-0.039163	0.042065	-0.076730	0.911149	0.710639	-0.143336	0.000000000	0.000000000	0.000000	
37647	-9.556085	-1.986714	-1.079827	-0.049364	0.027288	-0.082351	0.908589	0.710332	-0.143907	0.000000000	0.000000000	0.000000	
37648	-9.527788	-1.953240	-1.053542	-0.043747	0.025454	-0.087873	0.912759	0.712698	-0.141089	0.000000000	0.000000000	0.000000	
37649	-9.563019	-2.001543	-1.053529	-0.036266	0.027290	-0.097045	0.909611	0.710615	-0.143704	0.000000000	0.000000000	0.000000	
37650	-9.614730	-1.915820	-1.060618	-0.046542	0.027272	-0.091539	0.911343	0.712683	-0.141582	0.000000000	0.000000000	0.000000	
37651	-9.637060	-1.868145	-1.062969	-0.047411	0.020749	-0.110913	0.910783	0.712726	-0.142810	0.000000000	0.000000000	0.000000	
37652	-9.677385	-1.897348	-1.062943	-0.063305	0.038096	-0.109104	0.909245	0.712967	-0.143175	0.000000000	0.000000000	0.000000	
37653	-9.739760	-1.895844	-1.050931	-0.065107	0.032502	-0.126620	0.911484	0.713860	-0.141163	0.000000000	0.000000000	0.000000	
37654	-9.760875	-1.923051	-1.007889	-0.068821	0.024260	-0.121102	0.907565	0.712296	-0.143956	0.000000000	0.000000000	0.000000	
37655	-9.735632	-1.848658	-0.998320	-0.062327	0.035313	-0.119225	0.910318	0.715309	-0.141624	0.000000000	0.000000000	0.000000	
37656	-9.682937	-1.691868	-1.034167	-0.054900	0.025341	-0.104469	0.910697	0.716114	-0.141591	0.000000000	0.000000000	0.000000	
37657	-9.649985	-1.503414	-1.122579	-0.039178	0.038412	-0.078571	0.910768	0.715112	-0.140008	0.000000000	0.000000000	0.000000	
37658	-9.601652	-1.534833	-1.230219	-0.053219	0.050245	-0.076799	0.910866	0.715543	-0.140659	0.000000000	0.000000000	0.000000	
37659	-9.629598	-1.592045	-1.270858	-0.060642	0.034600	-0.078686	0.907032	0.713887	-0.141462	0.000000000	0.000000000	0.000000	
37660	-9.603880	-1.702188	-1.251801	-0.069048	0.032764	-0.067667	0.912004	0.716758	-0.137659	0.000000000	0.000000000	0.000000	
37661	-9.564637	-1.912484	-1.251922	-0.083007	0.028067	-0.069594	0.908655	0.715801	-0.138952	0.000000000	0.000000000	0.000000	
37662	-9.546121	-2.018610	-1.185041	-0.082960	0.014314	-0.067770	0.910341	0.716333	-0.138039	0.000000000	0.000000000	0.000000	
37663	-9.498067	-2.018954	-1.122928	-0.082957	0.012502	-0.062255	0.908809	0.716303	-0.138275	0.000000000	0.000000000	0.000000	
37664	-9.466085	-2.067103	-1.079944	-0.087619	0.010666	-0.055833	0.910600	0.716598	-0.137887	0.000000000	0.000000000	0.000000	
37665	-9.457729	-2.143367	-1.099108	-0.086685	0.010662	-0.056754	0.912424	0.717387	-0.136698	0.000000000	0.000000000	0.000000	
37666	-9.431492	-2.287032	-1.080064	-0.103455	0.012374	-0.058683	0.908522	0.715804	-0.139093	0.000000000	0.000000000	0.000000	
37667	-9.415454	-2.392359	-1.070559	-0.090405	0.010641	-0.053094	0.913692	0.718610	-0.136601	0.000000000	0.000000000	0.000000	
37668	-9.401314	-2.373520	-1.037094	-0.082913	0.003329	-0.056763	0.909446	0.717902	-0.138084	0.000000000	0.000000000	0.000000	
37669	-9.368868	-2.458671	-1.084973	-0.075484	0.013451	-0.056729	0.909724	0.717619	-0.137538	0.000000000	0.000000000	0.000000	
37670	-9.375232	-2.511569	-1.075426	-0.071746	0.016205	-0.060395	0.911512	0.718842	-0.137142	0.000000000	0.000000000	0.000000	
37671	-9.399627	-2.487488	-1.104082	-0.045650	0.023677	-0.065790	0.909762	0.716257	-0.136755	0.000000000	0.000000000	0.000000	
37672	-9.395097	-2.466572	-1.056263	-0.044698	0.017274	-0.063950	0.914337	0.718607	-0.133381	0.000000000	0.000000000	0.000000	
37673	-9.444250	-2.390502	-1.056187	-0.046540	0.014485	-0.071322	0.910350	0.717116	-0.137766	0.000000000	0.000000000	0.000000	
37674	-9.491738	-2.264604	-1.022622	-0.025087	0.010050	-0.070287	0.912496	0.717837	-0.134968	0.000000000	0.000000000	0.000000	
37675	-9.511765	-2.211907	-1.039317	-0.032618	0.016534	-0.050937	0.911890	0.715412	-0.134503	0.000000000	0.000000000	0.000000	
37676	-9.507825	-2.001252	-1.029673	-0.038207	0.014654	-0.054659	0.911303	0.717070	-0.136247	0.000000000	0.000000000	0.000000	
37677	-9.490041	-1.914177	-1.075078	-0.053145	0.014570	-0.052894	0.915288	0.718175	-0.134910	0.000000000	0.000000000	0.000000	
37678	-9.460080	-1.994430	-1.132516	-0.081141	0.017160	-0.049344	0.910290	0.715588	-0.136330	0.000000000	0.000000000	0.000000	
37679	-9.446630	-2.085762	-1.099095	-0.068039	0.018073	-0.064043	0.913901	0.717864	-0.134741	0.000000000	0.000000000	0.000000	
37680	-9.427584	-2.233575	-1.130252	-0.077350	0.008853	-0.060414	0.911846	0.717045	-0.135417	0.000000000	0.000000000	0.000000	
37681	-9.445894	-2.283029	-1.037016	-0.071677	-0.002172	-0.071459	0.911355	0.716617	-0.135057	0.000000000	0.000000000	0.000000	
37682	-9.459382	-2.336733	-0.977257	-0.080996	0.006927	-0.075173	0.911833	0.715605	-0.135829	0.000000000	0.000000000	0.000000	
37683	-9.516018	-2.393157	-0.929412	-0.079113	0.010594	-0.079747	0.910965	0.715825	-0.135356	0.000000000	0.000000000	0.000000	
37684	-9.510898	-2.414548	-0.936598	-0.080063	0.012445	-0.075139	0.915858	0.718384	-0.133414	0.000000000	0.000000000	0.000000	
37685	-9.520453	-2.415037	-0.910291	-0.061383	0.019811	-0.091643	0.913274	0.716650	-0.134663	0.000000000	0.000000000	0.000000	
37686	-9.477943	-2.375575	-0.955739	-0.051131	0.016195	-0.091618	0.911783	0.716444	-0.133971	0.000000000	0.000000000	0.000000	
37687	-9.491532	-2.428246	-0.967701	-0.049312	0.031818	-0.087895	0.911787	0.715119	-0.133984	0.000000000	0.000000000	0.000000	
37688	-9.521602	-2.346891	-0.986766	-0.051131	0.009798	-0.088842	0.913493	0.716290	-0.132534	0.000000000	0.000000000	0.000000	
37689	-9.512269	-2.328004	-0.960469	-0.053878	0.001472	-0.099015	0.914252	0.717633	-0.132470	0.000000000	0.000000000	0.000000	
37690	-9.570593	-2.278521	-0.950832	-0.051090	0.017954	-0.110028	0.910473	0.713812	-0.135144	0.000000000	0.000000000	0.000000	
37691	-9.541783	-2.276485	-0.903043	-0.056669	0.003300	-0.099013	0.912448	0.716164	-0.133267	0.000000000	0.000000000	0.000000	
37692	-9.550632	-2.166975	-0.864740	-0.051080	0.010660	-0.102665	0.912593	0.715883	-0.132863	0.000000000	0.000000000	0.000000	
37693	-9.541428	-2.146779	-0.929290	-0.062289	0.001470	-0.092588	0.913447	0.716471	-0.133594	0.000000000	0.000000000	0.000000	
37694	-9.572351	-2.004306	-0.869435	-0.052974	0.008874	-0.093446	0.914370	0.716986	-0.132733	0.000000000	0.000000000	0.000000	
37695	-9.493536	-1.989976	-0.969914	-0.060504	0.006165	-0.073226	0.911962	0.715994	-0.132772	0.000000000	0.000000000	0.000000	
37696	-9.477975	-2.068275	-1.008211	-0.077245	0.005049	-0.089915	0.913104	0.716817	-0.132687	0.000000000	0.000000000	0.000000	
37697	-9.437949	-2.177426	-1.046544	-0.062301	-0.001324	-0.095403	0.910341	0.713683	-0.135286	0.000000000	0.000000000	0.000000	
37698	-9.402445	-2.299499	-1.022719	-0.072515	-0.006023	-0.102847	0.914313	0.716246	-0.131156	0.000000000	0.000000000	0.000000	
37699	-9.380784	-2.459567	-1.032366	-0.065050	-0.005076	-0.103740	0.914007	0.716693	-0.132364	0.000000000	0.000000000	0.000000	
37700	-9.400088	-2.446490	-0.958231	-0.049155	-0.005944	-0.113805	0.912436	0.716176	-0.133533	0.000000000	0.000000000	0.000000	
37701	-9.384183	-2.546442	-0.989365	-0.030576	0.020769	-0.111847	0.912957	0.716176	-0.133233	0.000000000	0.000000000	0.000000	
37702	-9.437349	-2.518730	-0.960616	-0.030619	0.028184	-0.099825	0.909811	0.713033	-0.135858	0.000000000	0.000000000	0.000000	
37703	-9.477992	-2.528570	-0.974926	-0.021272	0.025458	-0.107148	0.913106	0.716419	-0.132691	0.000000000	0.000000000	0.000000	
37704	-9.515498	-2.424663	-0.903127	0.010420	0.033008	-0.106054	0.912996	0.715084	-0.135359	0.000000000	0.000000000	0.000000	
37705	-9.502277	-2.352113	-0.941362	0.011319	0.029402	-0.094992	0.913042	0.715035	-0.134298	0.000000000	0.000000000	0.000000	
37706	-9.494990	-2.205529	-0.969999	0.025263	0.035022	-0.089393	0.912288	0.715800	-0.134076	0.000000000	0.000000000	0.000000	
37707	-9.495541	-2.173713	-1.017800	0.006617	0.031230	-0.091330	0.910445	0.713710	-0.135808	0.000000000	0.000000000	0.000000	
37708	-9.532305	-2.125756	-1.051217	0.028984	0.033198	-0.093055	0.915004	0.715682	-0.132836	0.000000000	0.000000000	0.000000	
37709	-9.562156	-2.210196	-1.032097	0.010320	0.034055	-0.083903	0.913084	0.713148	-0.136431	0.000000000	0.000000000	0.000000	
37710	-9.572316	-2.174286	-1.039245	0.025236	0.038711	-0.088437	0.913932	0.715189	-0.134236	0.000000000	0.000000000	0.000000	
37711	-9.544489	-2.109822	-1.003384	-0.000915	0.044127	-0.074727	0.913653	0.713888	-0.134930	0.000000000	0.000000000	0.000000	
37712	-9.472571	-2.114730	-1.103864	-0.002830	0.042325	-0.062778	0.912394	0.711598	-0.134905	0.000000000	0.000000000	0.000000	
37713	-9.491154	-2.153365	-1.096690	0.004631	0.054243	-0.072867	0.913943	0.713460	-0.134120	0.000000000	0.000000000	0.000000	
37714	-9.515760	-2.110990	-1.065571	0.005567	0.050608	-0.069168	0.910908	0.708224	-0.137288	0.000000000	0.000000000	0.000000	
37715	-9.535051	-2.104096	-1.060768	0.012060	0.061678	-0.065427	0.913988	0.712362	-0.136114	0.000000000	0.000000000	0.000000	
37716	-9.558847	-2.112313	-1.008153	0.025113	0.060876	-0.059821	0.913822	0.711336	-0.134150	0.000000000	0.000000000	0.000000	
37717	-9.548937	-2.131565	-0.993826	0.021394	0.058100	-0.059845	0.915122	0.709619	-0.133550	0.000000000	0.000000000	0.000000	
37718	-9.557490	-2.198720	-0.993845	0.034424	0.057320	-0.048712	0.914426	0.710460	-0.134912	0.000000000	0.000000000	0.000000	
37719	-9.531880	-2.303729	-0.998693	0.021381	0.060870	-0.054312	0.912628	0.708719	-0.135579	0.000000000	0.000000000	0.000000	
37720	-9.478251	-2.354300	-0.936604	0.024191	0.068185	-0.059844	0.916850	0.711163	-0.131566	0.000000000	0.000000000	0.000000	
37721	-9.455547	-2.266396	-0.869650	0.021474	0.050683	-0.070955	0.914446	0.707797	-0.134672	0.000000000	0.000000000	0.000000	
37722	-9.378823	-2.267321	-0.910364	0.006511	0.053385	-0.059985	0.916870	0.709168	-0.134232	0.000000000	0.000000000	0.000000	
37723	-9.374769	-2.219377	-0.910349	-0.000967	0.070718	-0.069225	0.914647	0.707720	-0.132939	0.000000000	0.000000000	0.000000	
37724	-9.346834	-2.160046	-0.850583	-0.017741	0.060575	-0.060102	0.913842	0.706691	-0.134062	0.000000000	0.000000000	0.000000	
37725	-9.301700	-2.134957	-0.893648	-0.055062	0.073149	-0.065814	0.916627	0.707300	-0.134134	0.000000000	0.000000000	0.000000	
37726	-9.246637	-2.131308	-0.936731	-0.072786	0.076677	-0.069606	0.913356	0.704805	-0.133717	0.000000000	0.000000000	0.000000	
37727	-9.250657	-2.181612	-0.939138	-0.079329	0.080325	-0.065940	0.916310	0.709459	-0.129502	0.000000000	0.000000000	0.000000	
37728	-9.274178	-2.210793	-0.927174	-0.112854	0.083706	-0.082685	0.914236	0.707339	-0.130721	0.000000000	0.000000000	0.000000	
37729	-9.239595	-2.273075	-0.898543	-0.120320	0.085511	-0.078117	0.915168	0.704937	-0.129888	0.000000000	0.000000000	0.000000	
37730	-9.218930	-2.370578	-0.929681	-0.140799	0.079830	-0.086529	0.915763	0.706309	-0.127717	0.000000000	0.000000000	0.000000	
37731	-9.229855	-2.440051	-0.936870	-0.148261	0.079793	-0.084713	0.912967	0.705712	-0.127910	0.000000000	0.000000000	0.000000	
37732	-9.269410	-2.517417	-0.917739	-0.155704	0.085218	-0.092103	0.916584	0.708899	-0.123136	0.000000000	0.000000000	0.000000	
37733	-9.283775	-2.517824	-0.900990	-0.157633	0.093564	-0.073647	0.913858	0.704667	-0.124949	0.000000000	0.000000000	0.000000	
37734	-9.238645	-2.488670	-0.893849	-0.166929	0.096182	-0.086619	0.915033	0.704917	-0.121162	0.000000000	0.000000000	0.000000	
37735	-9.219512	-2.483867	-0.879520	-0.189292	0.099672	-0.094106	0.914584	0.703916	-0.119879	0.000000000	0.000000000	0.000000	
37736	-9.260180	-2.487385	-0.834060	-0.194928	0.101581	-0.075663	0.914384	0.704776	-0.118560	0.000000000	0.000000000	0.000000	
37737	-9.371169	-2.439509	-0.755043	-0.221943	0.094127	-0.072061	0.916703	0.705451	-0.114692	0.000000000	0.000000000	0.000000	
37738	-9.389652	-2.479144	-0.678539	-0.226551	0.081254	-0.073933	0.913195	0.703600	-0.116799	0.000000000	0.000000000	0.000000	
37739	-9.411474	-2.618365	-0.673793	-0.215346	0.074004	-0.070189	0.915138	0.706373	-0.112671	0.000000000	0.000000000	0.000000	
37740	-9.414204	-2.744309	-0.578212	-0.194775	0.056721	-0.066418	0.914952	0.704444	-0.111247	0.000000000	0.000000000	0.000000	
37741	-9.345160	-2.855540	-0.449222	-0.177875	0.029255	-0.073775	0.913712	0.703190	-0.110681	0.000000000	0.000000000	0.000000	
37742	-9.260523	-3.049446	-0.387220	-0.170319	0.011782	-0.086705	0.913652	0.703511	-0.109093	0.000000000	0.000000000	0.000000	
37743	-9.177500	-3.142234	-0.363427	-0.159018	-0.028546	-0.090422	0.912429	0.702371	-0.108128	0.000000000	0.000000000	0.000000	
37744	-9.017385	-3.259857	-0.382750	-0.140370	-0.028472	-0.090399	0.915860	0.706279	-0.104683	0.000000000	0.000000000	0.000000	
37745	-8.929879	-3.343340	-0.502401	-0.121637	-0.050516	-0.112514	0.912985	0.701804	-0.107037	0.000000000	0.000000000	0.000000	
37746	-8.923582	-3.453342	-0.674583	-0.112407	-0.030264	-0.106918	0.913528	0.701780	-0.106207	0.000000000	0.000000000	0.000000	
37747	-9.017726	-3.571429	-0.698450	-0.108640	-0.026647	-0.123460	0.912749	0.703099	-0.106511	0.000000000	0.000000000	0.000000	
37748	-9.151135	-3.642568	-0.853751	-0.083595	0.012067	-0.119556	0.912618	0.703753	-0.103602	0.000000000	0.000000000	0.000000	
37749	-9.280600	-3.668692	-1.138137	-0.038022	0.047154	-0.130326	0.915381	0.703188	-0.101304	0.000000000	0.000000000	0.000000	
37750	-9.503302	-3.563551	-1.465417	0.015874	0.097029	-0.133626	0.909969	0.699966	-0.103552	0.000000000	0.000000000	0.000000	
37751	-9.753687	-3.211320	-1.677816	0.066131	0.104750	-0.129603	0.913248	0.701925	-0.103842	0.000000000	0.000000000	0.000000	
37752	-9.957212	-2.784758	-1.859150	0.093998	0.131531	-0.136750	0.912515	0.699364	-0.103388	0.000000000	0.000000000	0.000000	
37753	-10.137488	-2.160618	-1.944808	0.136757	0.131050	-0.125369	0.913119	0.700325	-0.100591	0.000000000	0.000000000	0.000000	
37754	-10.240912	-1.688228	-2.068840	0.169320	0.120365	-0.108596	0.914422	0.699529	-0.099849	0.000000000	0.000000000	0.000000	
37755	-10.334520	-1.232110	-2.219186	0.214954	0.115185	-0.105597	0.911795	0.696783	-0.102171	0.000000000	0.000000000	0.000000	
37756	-10.307206	-0.990792	-2.324307	0.214875	0.103403	-0.078879	0.914376	0.697861	-0.101060	0.000000000	0.000000000	0.000000	
37757	-10.339581	-0.764979	-2.398299	0.237273	0.084281	-0.080636	0.912713	0.694008	-0.104652	0.000000000	0.000000000	0.000000	
37758	-10.401374	-0.642124	-2.331251	0.267096	0.077224	-0.065722	0.914076	0.695922	-0.102291	0.000000000	0.000000000	0.000000	
37759	-10.277803	-0.720076	-2.307491	0.315623	0.053682	-0.058194	0.914571	0.694892	-0.102665	0.000000000	0.000000000	0.000000	
37760	-10.186071	-0.755357	-2.278902	0.373308	0.078008	-0.030260	0.913814	0.691571	-0.105794	0.000000000	0.000000000	0.000000	
37761	-10.172014	-0.719534	-2.094814	0.438550	0.063932	0.006922	0.915067	0.691234	-0.109155	0.000000000	0.000000000	0.000000	
37762	-10.138081	-0.734892	-1.999222	0.485120	0.058875	0.038483	0.911545	0.687159	-0.114727	0.000000000	0.000000000	0.000000	
37763	-10.187867	-0.923057	-1.944264	0.514925	0.040915	0.075522	0.916839	0.689445	-0.112363	0.000000000	0.000000000	0.000000	
37764	-10.349924	-1.294766	-1.872540	0.513049	0.041025	0.094036	0.916018	0.686722	-0.116946	0.000000000	0.000000000	0.000000	
37765	-10.458250	-1.722110	-1.719604	0.490778	0.020724	0.093963	0.917179	0.684230	-0.119673	0.000000000	0.000000000	0.000000	
37766	-10.452453	-2.085598	-1.585874	0.474184	-0.023486	0.080004	0.917848	0.683293	-0.121887	0.000000000	0.000000000	0.000000	
37767	-10.340303	-2.506699	-1.523988	0.456599	-0.053035	0.069703	0.917365	0.679965	-0.127513	0.000000000	0.000000000	0.000000	
37768	-10.413049	-2.749919	-1.323197	0.423243	-0.093694	0.048322	0.921554	0.683115	-0.127200	0.000000000	0.000000000	0.000000	
37769	-10.433743	-2.631952	-1.050586	0.412139	-0.097455	0.039979	0.919971	0.677210	-0.135043	0.000000000	0.000000000	0.000000	
37770	-10.149357	-2.406440	-1.017291	0.360008	-0.138169	0.041414	0.922954	0.677622	-0.136427	0.000000000	0.000000000	0.000000	
37771	-9.906126	-2.324935	-1.160929	0.280724	-0.148760	0.047386	0.921826	0.676792	-0.139159	0.000000000	0.000000000	0.000000	
37772	-9.805419	-2.327599	-1.227965	0.215499	-0.155684	0.031351	0.922465	0.676416	-0.142032	0.000000000	0.000000000	0.000000	
37773	-9.681835	-2.409720	-1.247239	0.116845	-0.191364	-0.006097	0.924030	0.675758	-0.144051	0.000000000	0.000000000	0.000000	
37774	-9.567479	-2.513812	-1.244997	0.046048	-0.185550	-0.034136	0.921566	0.673249	-0.148477	0.000000000	0.000000000	0.000000	
37775	-9.447633	-2.655143	-1.147145	0.016353	-0.198766	-0.065696	0.923392	0.677875	-0.149897	0.000000000	0.000000000	0.000000	
37776	-9.327771	-2.800678	-1.089938	0.005329	-0.214675	-0.107320	0.923467	0.676349	-0.151231	0.000000000	0.000000000	0.000000	
37777	-9.192225	-2.876305	-1.051843	0.009178	-0.232247	-0.133204	0.923562	0.676660	-0.154928	0.000000000	0.000000000	0.000000	
37778	-8.935384	-2.736289	-1.090278	0.025012	-0.213039	-0.151664	0.923347	0.677412	-0.156921	0.000000000	0.000000000	0.000000	
37779	-8.707727	-2.578362	-1.231481	0.037179	-0.216844	-0.182151	0.921380	0.678223	-0.158369	0.000000000	0.000000000	0.000000	
37780	-8.578303	-2.265024	-1.267337	0.052067	-0.188466	-0.206090	0.923334	0.682588	-0.159782	0.000000000	0.000000000	0.000000	
37781	-8.548933	-1.838470	-1.262411	0.089352	-0.177302	-0.220680	0.919742	0.681883	-0.163737	0.000000000	0.000000000	0.000000	
37782	-8.676053	-1.674225	-1.128346	0.094923	-0.145186	-0.231632	0.920931	0.683060	-0.165499	0.000000000	0.000000000	0.000000	
37783	-8.797851	-1.701025	-1.027832	0.114501	-0.137681	-0.227790	0.917413	0.682407	-0.167727	0.000000000	0.000000000	0.000000	
37784	-8.954873	-1.780227	-0.975121	0.147205	-0.130255	-0.254313	0.916519	0.684247	-0.170681	0.000000000	0.000000000	0.000000	
37785	-9.086269	-1.968642	-0.967902	0.164011	-0.127415	-0.260632	0.916334	0.688271	-0.171712	0.000000000	0.000000000	0.000000	
37786	-9.195695	-2.027412	-0.965432	0.223708	-0.115206	-0.278743	0.913690	0.686344	-0.177336	0.000000000	0.000000000	0.000000	
37787	-9.352475	-1.806136	-0.824144	0.261104	-0.114182	-0.309866	0.911529	0.691444	-0.177033	0.000000000	0.000000000	0.000000	
37788	-9.424722	-1.622204	-0.682949	0.287254	-0.131383	-0.302356	0.910308	0.691111	-0.181884	0.000000000	0.000000000	0.000000	
37789	-9.478254	-1.257580	-0.601468	0.287262	-0.140502	-0.297736	0.908136	0.693060	-0.185055	0.000000000	0.000000000	0.000000	
37790	-9.469939	-1.020394	-0.601380	0.275098	-0.138680	-0.287651	0.908079	0.694971	-0.186231	0.000000000	0.000000000	0.000000	
37791	-9.519224	-0.787487	-0.682526	0.251716	-0.135068	-0.274828	0.903069	0.696631	-0.190522	0.000000000	0.000000000	0.000000	
37792	-9.649679	-0.579463	-0.763606	0.223662	-0.142395	-0.247246	0.905029	0.702839	-0.191652	0.000000000	0.000000000	0.000000	
37793	-9.747258	-0.483137	-0.878231	0.181604	-0.146137	-0.216971	0.901137	0.700460	-0.196835	0.000000000	0.000000000	0.000000	
37794	-9.740473	-0.462762	-0.957124	0.152696	-0.157298	-0.212512	0.898794	0.703106	-0.198025	0.000000000	0.000000000	0.000000	
37795	-9.598202	-0.367946	-1.107835	0.115355	-0.175803	-0.194323	0.897714	0.704734	-0.199405	0.000000000	0.000000000	0.000000	
37796	-9.465290	-0.142295	-1.370849	0.085371	-0.188639	-0.153956	0.896267	0.706214	-0.203458	0.000000000	0.000000000	0.000000	
37797	-9.389484	0.203339	-1.695921	0.051523	-0.162913	-0.104316	0.895941	0.709324	-0.204905	0.000000000	0.000000000	0.000000	
37798	-9.470442	0.774107	-1.815153	0.010261	-0.154544	-0.042675	0.891910	0.706021	-0.207459	0.000000000	0.000000000	0.000000	
37799	-9.703900	1.292740	-1.762130	-0.018891	-0.149606	0.043069	0.892663	0.711468	-0.207222	0.000000000	0.000000000	0.000000	
37800	-10.023037	1.785520	-1.479528	-0.031134	-0.177552	0.129816	0.891067	0.711771	-0.208914	0.000000000	0.000000000	0.000000	
37801	-10.277579	2.151373	-0.979480	-0.046001	-0.240452	0.202654	0.890612	0.709727	-0.210819	0.000000000	0.000000000	0.000000	
37802	-10.405098	2.372119	-0.446138	-0.001227	-0.327579	0.314433	0.889939	0.710809	-0.211647	0.000000000	0.000000000	0.000000	
37803	-10.436108	2.559861	0.127742	0.058514	-0.418368	0.414248	0.889452	0.708675	-0.217261	0.000000000	0.000000000	0.000000	
37804	-10.449811	2.710244	0.648996	0.162055	-0.519830	0.528083	0.893927	0.709557	-0.219334	0.000000000	0.000000000	0.000000	
37805	-10.334340	2.861464	0.883241	0.274755	-0.584558	0.647478	0.893615	0.703948	-0.227089	0.000000000	0.000000000	0.000000	
37806	-10.252756	3.172976	0.935886	0.404908	-0.593057	0.798390	0.893099	0.698543	-0.233664	0.000000000	0.000000000	0.000000	
37807	-10.154162	3.599607	0.658640	0.492941	-0.563311	0.947290	0.895106	0.696127	-0.240304	0.000000000	0.000000000	0.000000	
37808	-9.642926	4.336529	0.450465	0.550186	-0.475377	1.048902	0.897992	0.690310	-0.247449	0.000000000	0.000000000	0.000000	
37809	-9.395383	4.790504	0.720569	0.666553	-0.436838	1.096431	0.904696	0.685236	-0.251286	0.000000000	0.000000000	0.000000	
37810	-9.275400	4.161092	0.619793	0.757733	-0.367464	1.112578	0.902159	0.675811	-0.260948	0.000000000	0.000000000	0.000000	
37811	-9.456235	3.399368	-0.011498	0.613621	-0.276192	1.195105	0.906465	0.669864	-0.264557	0.000000000	0.000000000	0.000000	
37812	-10.231378	2.611969	-0.498800	0.350092	-0.266523	1.393451	0.910123	0.662065	-0.268626	0.000000000	0.000000000	0.000000	
37813	-10.559563	1.463371	-0.991447	0.017703	-0.307838	1.589396	0.914665	0.656138	-0.269704	0.000000000	0.000000000	0.000000	
37814	-10.799583	0.489203	-1.718397	-0.326752	-0.341269	1.733593	0.920794	0.648594	-0.269367	0.000000000	0.000000000	0.000000	
37815	-11.286107	-0.032613	-2.124578	-0.615095	-0.343485	1.804396	0.921205	0.639058	-0.269435	0.000000000	0.000000000	0.000000	
37816	-12.228649	-0.366335	-2.319872	-0.801613	-0.335246	1.807613	0.935394	0.632170	-0.261535	0.000000000	0.000000000	0.000000	
37817	-13.432387	-0.858750	-2.347635	-0.872358	-0.313693	1.757997	0.934414	0.621534	-0.261575	0.000000000	0.000000000	0.000000	
37818	-14.333186	-1.565347	-2.559853	-0.892915	-0.238712	1.709476	0.940839	0.618304	-0.256940	0.000000000	0.000000000	0.000000	
37819	-14.986523	-2.376639	-1.792143	-0.847939	-0.199961	1.675902	0.943808	0.608937	-0.253524	0.000000000	0.000000000	0.000000	
37820	-15.006418	-3.203828	-1.077627	-0.743235	-0.185783	1.635859	0.948544	0.602535	-0.250093	0.000000000	0.000000000	0.000000	
37821	-14.554596	-3.547522	-0.798471	-0.692928	-0.160693	1.658091	0.954039	0.595363	-0.246752	0.000000000	0.000000000	0.000000	
37822	-13.977291	-3.950071	-0.655727	-0.713406	-0.148144	1.651329	0.953487	0.586537	-0.245553	0.000000000	0.000000000	0.000000	
37823	-13.276729	-4.554646	-0.355391	-0.706884	-0.152634	1.691674	0.963919	0.581218	-0.239346	0.000000000	0.000000000	0.000000	
37824	-12.881686	-4.652372	-0.238653	-0.699618	-0.127578	1.753384	0.967101	0.572431	-0.236837	0.000000000	0.000000000	0.000000	
37825	-12.772657	-4.266457	-0.341402	-0.752864	-0.166141	1.808382	0.974158	0.567107	-0.232445	0.000000000	0.000000000	0.000000	
37826	-12.396707	-3.464622	-0.508782	-0.858431	-0.164758	1.853844	0.979640	0.554928	-0.229816	0.000000000	0.000000000	0.000000	
37827	-12.132463	-2.742946	-0.853005	-0.933306	-0.143005	1.897670	0.984119	0.545483	-0.226697	0.000000000	0.000000000	0.000000	
37828	-11.912457	-3.145992	-0.628643	-1.040436	-0.194876	1.933931	0.993531	0.535519	-0.221003	0.000000000	0.000000000	0.000000	
37829	-11.651547	-3.553977	-0.361288	-1.212497	-0.233202	1.833372	0.996184	0.525949	-0.219067	0.000000000	0.000000000	0.000000	
37830	-11.185398	-3.915024	-0.361868	-1.381979	-0.249344	1.771502	1.004385	0.519984	-0.211692	0.000000000	0.000000000	0.000000	
37831	-10.771869	-3.825719	-0.412424	-1.475108	-0.234739	1.708191	1.005613	0.508417	-0.207621	0.000000000	0.000000000	0.000000	
37832	-10.533274	-3.741858	-0.391096	-1.526309	-0.221571	1.664517	1.010848	0.502823	-0.201369	0.000000000	0.000000000	0.000000	
37833	-10.325909	-3.661869	-0.458198	-1.523373	-0.249310	1.627513	1.016905	0.494944	-0.196805	0.000000000	0.000000000	0.000000	
37834	-9.796521	-3.782683	-0.626092	-1.485072	-0.242124	1.578593	1.015471	0.486880	-0.195393	0.000000000	0.000000000	0.000000	
37835	-9.245713	-4.047010	-0.789282	-1.423417	-0.265918	1.543574	1.024584	0.481442	-0.187423	0.000000000	0.000000000	0.000000	
37836	-8.687650	-3.817110	-0.509995	-1.369231	-0.242087	1.497510	1.026451	0.474777	-0.182863	0.000000000	0.000000000	0.000000	
37837	-8.473492	-3.682519	-0.206517	-1.297321	-0.202550	1.439698	1.035645	0.469391	-0.175946	0.000000000	0.000000000	0.000000	
37838	-8.537580	-3.556694	-0.015148	-1.251491	-0.183294	1.381850	1.037430	0.458190	-0.173687	0.000000000	0.000000000	0.000000	
37839	-8.450898	-3.573322	0.044533	-1.209439	-0.166792	1.335911	1.038447	0.453979	-0.171013	0.000000000	0.000000000	0.000000	
37840	-8.233794	-3.650198	0.068206	-1.159975	-0.095422	1.256811	1.046659	0.444170	-0.163677	0.000000000	0.000000000	0.000000	
37841	-7.995916	-3.522755	0.056082	-1.051790	-0.032826	1.185341	1.045549	0.437623	-0.160507	0.000000000	0.000000000	0.000000	
37842	-7.887351	-3.402797	0.127751	-0.908225	0.050243	1.123338	1.053395	0.432148	-0.152490	0.000000000	0.000000000	0.000000	
37843	-7.797901	-3.289830	0.170746	-0.731069	0.119761	1.061482	1.051663	0.423464	-0.152163	0.000000000	0.000000000	0.000000	
37844	-7.831920	-3.267564	0.094283	-0.518488	0.180350	1.001673	1.056126	0.417340	-0.149144	0.000000000	0.000000000	0.000000	
37845	-7.981937	-3.195307	-0.053774	-0.272202	0.192468	0.925404	1.061572	0.409156	-0.144095	0.000000000	0.000000000	0.000000	
37846	-8.098028	-3.299878	-0.201933	-0.050107	0.186998	0.848990	1.059877	0.404008	-0.145584	0.000000000	0.000000000	0.000000	
37847	-7.938462	-3.553305	-0.436475	0.149609	0.161214	0.785249	1.066537	0.395784	-0.141777	0.000000000	0.000000000	0.000000	
37848	-7.514312	-3.363210	-0.326821	0.315811	0.083168	0.767306	1.067531	0.388699	-0.142840	0.000000000	0.000000000	0.000000	
37849	-7.221802	-3.043998	-0.307840	0.384810	0.089884	0.753674	1.071877	0.382041	-0.142615	0.000000000	0.000000000	0.000000	
37850	-7.461275	-2.751448	-0.192744	0.420278	0.156752	0.684833	1.073796	0.372825	-0.142975	0.000000000	0.000000000	0.000000	
37851	-7.914861	-2.268809	-0.144312	0.506170	0.228341	0.574805	1.075243	0.365283	-0.145335	0.000000000	0.000000000	0.000000	
37852	-8.206072	-1.750891	-0.253806	0.619092	0.261651	0.486924	1.082585	0.356241	-0.143477	0.000000000	0.000000000	0.000000	
37853	-8.297256	-1.139493	-0.375403	0.694592	0.343315	0.400689	1.080118	0.352009	-0.145140	0.000000000	0.000000000	0.000000	
37854	-8.291176	-0.308216	-0.554380	0.776580	0.439635	0.306155	1.083508	0.343542	-0.143674	0.000000000	0.000000000	0.000000	
37855	-8.292096	0.371568	-0.530199	0.816609	0.533080	0.235417	1.084000	0.339740	-0.144340	0.000000000	0.000000000	0.000000	
37856	-8.324019	0.887662	-0.472584	0.865920	0.619399	0.193324	1.086897	0.333755	-0.142352	0.000000000	0.000000000	0.000000	
37857	-8.564576	1.251734	-0.335942	0.918112	0.729397	0.108932	1.091214	0.329491	-0.136678	0.000000000	0.000000000	0.000000	
37858	-8.740168	1.769909	-0.039119	0.949039	0.767752	0.029864	1.087664	0.325163	-0.136959	0.000000000	0.000000000	0.000000	
37859	-9.090937	2.299229	0.341548	0.924054	0.790270	-0.039262	1.094850	0.322079	-0.129359	0.000000000	0.000000000	0.000000	
37860	-9.382257	2.703099	0.667122	0.847837	0.755749	-0.079201	1.092920	0.319274	-0.127266	0.000000000	0.000000000	0.000000	
37861	-9.643832	3.194493	0.925763	0.747336	0.723861	-0.112807	1.093673	0.316256	-0.124731	0.000000000	0.000000000	0.000000	
37862	-9.814332	3.681475	1.064780	0.613331	0.620362	-0.117178	1.094073	0.313331	-0.121556	0.000000000	0.000000000	0.000000	
37863	-9.926004	4.067486	0.945503	0.476363	0.528001	-0.088372	1.094594	0.312264	-0.118355	0.000000000	0.000000000	0.000000	
37864	-9.956848	4.186962	0.773447	0.354277	0.430302	-0.040162	1.100001	0.309275	-0.113786	0.000000000	0.000000000	0.000000	
37865	-9.945814	4.081666	0.610824	0.228519	0.347081	-0.021482	1.096853	0.305993	-0.113500	0.000000000	0.000000000	0.000000	
37866	-9.951918	3.844387	0.452946	0.118723	0.245488	-0.025801	1.096444	0.306666	-0.111138	0.000000000	0.000000000	0.000000	
37867	-9.920557	3.659142	0.204206	0.035855	0.164307	-0.015231	1.096102	0.304764	-0.110386	0.000000000	0.000000000	0.000000	
37868	-9.809196	3.575195	-0.030224	-0.018222	0.109985	0.013920	1.097504	0.302152	-0.110450	0.000000000	0.000000000	0.000000	
37869	-9.760717	3.538263	-0.087661	-0.029427	0.085267	0.037800	1.100685	0.301830	-0.110240	0.000000000	0.000000000	0.000000	
37870	-9.780062	3.549739	-0.068513	-0.036824	0.070503	0.028532	1.097561	0.299060	-0.112330	0.000000000	0.000000000	0.000000	
37871	-9.798985	3.530707	-0.092410	-0.010717	0.068830	0.028659	1.099689	0.296630	-0.110226	0.000000000	0.000000000	0.000000	
37872	-9.719582	3.514857	-0.092491	0.001435	0.061519	0.023140	1.098913	0.295172	-0.110690	0.000000000	0.000000000	0.000000	
37873	-9.644956	3.496730	-0.104521	0.017421	0.032106	-0.003602	1.100827	0.295344	-0.110427	0.000000000	0.000000000	0.000000	
37874	-9.590131	3.363421	-0.116580	0.017530	0.020008	-0.033154	1.102328	0.294350	-0.110998	0.000000000	0.000000000	0.000000	
37875	-9.506412	3.227257	-0.073679	-0.000977	0.000450	-0.063734	1.099487	0.293140	-0.112260	0.000000000	0.000000000	0.000000	
37876	-9.413727	3.137921	0.050517	-0.015705	-0.020062	-0.106292	1.102400	0.293619	-0.112324	0.000000000	0.000000000	0.000000	
37877	-9.302393	3.076453	0.083858	-0.034173	-0.035150	-0.158095	1.098604	0.293383	-0.115097	0.000000000	0.000000000	0.000000	
37878	-9.226393	2.963686	-0.007106	-0.039651	-0.040952	-0.203357	1.101640	0.294390	-0.112235	0.000000000	0.000000000	0.000000	
37879	-9.150917	2.880444	-0.153045	-0.072229	-0.015784	-0.257935	1.100034	0.296290	-0.114045	0.000000000	0.000000000	0.000000	
37880	-9.149523	2.781567	-0.270232	-0.101068	-0.021619	-0.285750	1.098811	0.297668	-0.115834	0.000000000	0.000000000	0.000000	
37881	-9.070700	2.636270	-0.428152	-0.141994	-0.022152	-0.333941	1.100086	0.299669	-0.112552	0.000000000	0.000000000	0.000000	
37882	-9.069546	2.555962	-0.504689	-0.218433	-0.006247	-0.359184	1.095063	0.303987	-0.116950	0.000000000	0.000000000	0.000000	
37883	-9.035399	2.518278	-0.521471	-0.258493	0.017166	-0.393485	1.098501	0.306039	-0.113521	0.000000000	0.000000000	0.000000	
37884	-8.925191	2.524716	-0.547869	-0.311612	0.052353	-0.438011	1.095758	0.309876	-0.112079	0.000000000	0.000000000	0.000000	
37885	-8.828817	2.497122	-0.550361	-0.317238	0.082486	-0.452799	1.094831	0.314651	-0.112623	0.000000000	0.000000000	0.000000	
37886	-8.778116	2.476117	-0.548026	-0.370351	0.102172	-0.482559	1.095943	0.317216	-0.110140	0.000000000	0.000000000	0.000000	
37887	-8.778847	2.368375	-0.550459	-0.427305	0.130295	-0.475409	1.090757	0.322080	-0.109381	0.000000000	0.000000000	0.000000	
37888	-8.832992	2.151490	-0.500291	-0.501841	0.139828	-0.496010	1.094718	0.326368	-0.102454	0.000000000	0.000000000	0.000000	
37889	-8.879241	2.040725	-0.495510	-0.550248	0.141227	-0.523885	1.088556	0.331303	-0.103744	0.000000000	0.000000000	0.000000	
37890	-8.795661	1.907990	-0.524330	-0.525986	0.165957	-0.553292	1.087956	0.335602	-0.099638	0.000000000	0.000000000	0.000000	
37891	-8.674004	1.786755	-0.655983	-0.479393	0.203632	-0.586289	1.087535	0.340384	-0.097236	0.000000000	0.000000000	0.000000	
37892	-8.507208	1.535081	-0.840326	-0.434718	0.239553	-0.599021	1.084370	0.345834	-0.093688	0.000000000	0.000000000	0.000000	
37893	-8.574474	1.222443	-0.969489	-0.393696	0.285423	-0.643023	1.084921	0.349623	-0.089377	0.000000000	0.000000000	0.000000	
37894	-9.377412	0.707491	-1.107609	-0.390798	0.330125	-0.718263	1.078087	0.356689	-0.088442	0.000000000	0.000000000	0.000000	
37895	-10.036663	0.063008	-1.116815	-0.367205	0.318934	-0.800907	1.079582	0.363746	-0.082579	0.000000000	0.000000000	0.000000	
37896	-10.792307	-0.553674	-1.137874	-0.322198	0.296996	-0.863132	1.075402	0.371943	-0.078807	0.000000000	0.000000000	0.000000	
37897	-11.198778	-0.580986	-0.398769	-0.245395	0.226923	-0.868208	1.073269	0.376344	-0.074935	0.000000000	0.000000000	0.000000	
37898	-11.108344	1.105275	0.816317	-0.084859	0.153155	-0.797478	1.071872	0.384764	-0.074283	0.000000000	0.000000000	0.000000	
37899	-11.098746	3.781188	1.429411	0.172032	0.160283	-0.635805	1.068285	0.389332	-0.074743	0.000000000	0.000000000	0.000000	
37900	-11.358243	6.737711	1.301741	0.316498	0.256055	-0.414507	1.071987	0.392041	-0.071026	0.000000000	0.000000000	0.000000	
37901	-12.299825	8.805647	0.968747	0.358481	0.343872	-0.211855	1.066363	0.391275	-0.072073	0.000000000	0.000000000	0.000000	
37902	-12.944633	9.087760	0.986197	0.237302	0.282971	-0.170723	1.068810	0.393670	-0.068046	0.000000000	0.000000000	0.000000	
37903	-12.337151	7.950480	0.786743	-0.111106	0.163248	-0.177331	1.066948	0.395425	-0.066962	0.000000000	0.000000000	0.000000	
37904	-10.828629	4.990961	0.291655	-0.405079	-0.037431	-0.240397	1.066383	0.397976	-0.065121	0.000000000	0.000000000	0.000000	
37905	-9.726046	1.907923	-0.265263	-0.583627	-0.171228	-0.290689	1.066987	0.402113	-0.062524	0.000000000	0.000000000	0.000000	
37906	-8.825532	-0.187716	-0.534707	-0.585328	-0.174503	-0.334395	1.063145	0.406559	-0.068959	0.000000000	0.000000000	0.000000	
37907	-8.538006	-1.092539	-0.501868	-0.463386	-0.037332	-0.359593	1.066440	0.411128	-0.062736	0.000000000	0.000000000	0.000000	
37908	-8.875443	-1.329838	-0.922418	-0.280304	0.169358	-0.343606	1.062359	0.415394	-0.059923	0.000000000	0.000000000	0.000000	
37909	-9.287834	-1.380098	-1.419326	-0.065121	0.271327	-0.397675	1.061439	0.416850	-0.057587	0.000000000	0.000000000	0.000000	
37910	-9.239000	-1.889177	-1.285695	0.090686	0.343357	-0.478046	1.060264	0.422397	-0.054963	0.000000000	0.000000000	0.000000	
37911	-9.480293	-2.272958	-1.436240	0.226087	0.350158	-0.565861	1.059732	0.427158	-0.052172	0.000000000	0.000000000	0.000000	
37912	-9.545720	-2.068995	-1.350031	0.406004	0.410687	-0.603669	1.062342	0.433086	-0.047040	0.000000000	0.000000000	0.000000	
37913	-9.807254	-1.897098	-1.189538	0.611203	0.440199	-0.646849	1.055114	0.437389	-0.049600	0.000000000	0.000000000	0.000000	
37914	-10.126647	-2.031802	-1.237109	0.751168	0.427194	-0.675602	1.055257	0.442520	-0.045833	0.000000000	0.000000000	0.000000	
37915	-10.347697	-2.028157	-1.499882	0.795995	0.410807	-0.710383	1.052341	0.447601	-0.048361	0.000000000	0.000000000	0.000000	
37916	-10.385925	-1.719060	-1.375404	0.742084	0.370937	-0.734650	1.051005	0.453453	-0.049451	0.000000000	0.000000000	0.000000	
37917	-10.132396	-1.038727	-1.186499	0.604155	0.345314	-0.735430	1.051629	0.458494	-0.046314	0.000000000	0.000000000	0.000000	
37918	-9.951756	-0.616291	-1.107604	0.334794	0.282295	-0.720231	1.046150	0.465245	-0.046350	0.000000000	0.000000000	0.000000	
37919	-9.863988	-0.084451	-1.050095	0.072930	0.217421	-0.721568	1.049338	0.469533	-0.042652	0.000000000	0.000000000	0.000000	
37920	-9.870370	0.319260	-1.150338	-0.152787	0.205194	-0.696809	1.045540	0.474575	-0.042062	0.000000000	0.000000000	0.000000	
37921	-10.019070	0.313587	-1.207579	-0.341172	0.180419	-0.662602	1.046095	0.481672	-0.040366	0.000000000	0.000000000	0.000000	
37922	-10.075265	-0.102711	-1.446767	-0.447568	0.167135	-0.622503	1.043781	0.485336	-0.037837	0.000000000	0.000000000	0.000000	
37923	-9.863168	-0.819701	-1.877585	-0.471853	0.145872	-0.609814	1.040970	0.490428	-0.034930	0.000000000	0.000000000	0.000000	
37924	-9.655067	-1.268155	-2.167238	-0.447725	0.152479	-0.588563	1.043597	0.495940	-0.029404	0.000000000	0.000000000	0.000000	
37925	-9.728906	-1.472030	-2.370464	-0.373198	0.156640	-0.580805	1.038653	0.497785	-0.029188	0.000000000	0.000000000	0.000000	
37926	-9.870731	-1.452178	-2.365542	-0.263190	0.163755	-0.581151	1.040284	0.502730	-0.026250	0.000000000	0.000000000	0.000000	
37927	-9.841022	-1.354199	-2.327279	-0.128898	0.164511	-0.591608	1.037463	0.502290	-0.026973	0.000000000	0.000000000	0.000000	
37928	-9.768216	-1.257015	-2.365559	0.012756	0.195586	-0.598325	1.038285	0.509249	-0.024995	0.000000000	0.000000000	0.000000	
37929	-9.743053	-1.177764	-2.360770	0.137661	0.202788	-0.593135	1.038541	0.513605	-0.021625	0.000000000	0.000000000	0.000000	
37930	-9.769955	-1.291977	-2.267552	0.258994	0.191463	-0.619321	1.033557	0.516295	-0.025242	0.000000000	0.000000000	0.000000	
37931	-9.720209	-1.252845	-2.284317	0.380133	0.221525	-0.621511	1.035879	0.520543	-0.023985	0.000000000	0.000000000	0.000000	
37932	-9.605634	-1.367238	-2.231874	0.512554	0.225937	-0.627391	1.031643	0.522474	-0.027957	0.000000000	0.000000000	0.000000	
37933	-9.600309	-1.396743	-2.174513	0.618920	0.218240	-0.643510	1.034519	0.529065	-0.025448	0.000000000	0.000000000	0.000000	
37934	-9.561111	-1.134030	-2.093159	0.725203	0.227125	-0.646713	1.032613	0.529025	-0.028488	0.000000000	0.000000000	0.000000	
37935	-9.615870	-0.839837	-1.944765	0.797950	0.212980	-0.635302	1.029301	0.533055	-0.031450	0.000000000	0.000000000	0.000000	
37936	-9.563133	-0.677415	-1.873027	0.869817	0.209622	-0.658055	1.030046	0.537189	-0.031491	0.000000000	0.000000000	0.000000	
37937	-9.552240	-0.440011	-1.719934	0.900767	0.187588	-0.699451	1.025557	0.539252	-0.038391	0.000000000	0.000000000	0.000000	
37938	-9.567227	-0.399816	-1.695997	0.868076	0.178391	-0.668245	1.029005	0.542624	-0.037596	0.000000000	0.000000000	0.000000	
37939	-9.700369	0.134222	-1.800851	0.842805	0.183854	-0.655400	1.025386	0.543269	-0.042069	0.000000000	0.000000000	0.000000	
37940	-9.746568	0.495500	-1.647655	0.793341	0.194669	-0.640840	1.023434	0.547376	-0.045865	0.000000000	0.000000000	0.000000	
37941	-9.798613	0.604789	-1.628437	0.734701	0.143005	-0.633776	1.023047	0.551741	-0.048628	0.000000000	0.000000000	0.000000	
37942	-9.594094	0.564070	-1.631035	0.656339	0.144397	-0.619461	1.017044	0.551641	-0.055518	0.000000000	0.000000000	0.000000	
37943	-9.592437	0.311043	-1.521164	0.581841	0.119184	-0.617986	1.020196	0.558345	-0.052460	0.000000000	0.000000000	0.000000	
37944	-9.693716	0.042806	-1.435111	0.551967	0.117340	-0.588562	1.017180	0.558910	-0.057687	0.000000000	0.000000000	0.000000	
37945	-9.785760	-0.062144	-1.537869	0.540758	0.102688	-0.573836	1.016601	0.563201	-0.059006	0.000000000	0.000000000	0.000000	
37946	-9.906436	0.134018	-1.618963	0.555598	0.105648	-0.557117	1.014736	0.564836	-0.060969	0.000000000	0.000000000	0.000000	
37947	-9.940837	0.503445	-1.523153	0.527647	0.068953	-0.531452	1.009810	0.564819	-0.063417	0.000000000	0.000000000	0.000000	
37948	-9.956375	0.892523	-1.446478	0.462264	0.077937	-0.496691	1.012993	0.569781	-0.062757	0.000000000	0.000000000	0.000000	
37949	-9.865602	0.913383	-1.491979	0.406208	0.074134	-0.454562	1.009471	0.567556	-0.068178	0.000000000	0.000000000	0.000000	
37950	-9.620654	0.577685	-1.599925	0.385644	0.077677	-0.441837	1.010488	0.569563	-0.067958	0.000000000	0.000000000	0.000000	
37951	-9.409312	-0.077171	-1.856194	0.327712	0.077452	-0.403447	1.008275	0.571019	-0.069151	0.000000000	0.000000000	0.000000	
37952	-9.232308	-0.672227	-1.968963	0.284916	0.062344	-0.424022	1.008090	0.573457	-0.070330	0.000000000	0.000000000	0.000000	
37953	-9.164789	-1.313340	-1.964502	0.266481	0.023493	-0.457379	1.006002	0.575579	-0.071508	0.000000000	0.000000000	0.000000	
37954	-9.079819	-1.682273	-1.888226	0.283357	0.028927	-0.484071	1.001070	0.574917	-0.077141	0.000000000	0.000000000	0.000000	
37955	-9.130192	-1.676703	-1.816454	0.283446	0.021491	-0.505273	1.000901	0.581037	-0.077620	0.000000000	0.000000000	0.000000	
37956	-9.223854	-1.512882	-1.792394	0.296548	0.017840	-0.521784	0.999639	0.581657	-0.077434	0.000000000	0.000000000	0.000000	
37957	-9.307488	-1.375564	-1.749227	0.315207	0.019788	-0.526274	0.999051	0.585033	-0.079029	0.000000000	0.000000000	0.000000	
37958	-9.343389	-1.530213	-1.682315	0.316109	0.050031	-0.532671	0.995938	0.586082	-0.080551	0.000000000	0.000000000	0.000000	
37959	-9.417726	-1.680620	-1.608194	0.322676	0.058269	-0.545510	0.992764	0.588519	-0.083387	0.000000000	0.000000000	0.000000	
37960	-9.388123	-1.737066	-1.656059	0.324568	0.063675	-0.563956	0.992711	0.592135	-0.081369	0.000000000	0.000000000	0.000000	
37961	-9.318469	-1.749426	-1.739804	0.341404	0.053571	-0.582369	0.986795	0.593262	-0.086123	0.000000000	0.000000000	0.000000	
37962	-9.327941	-1.758838	-1.758925	0.350782	0.076332	-0.624726	0.986346	0.596093	-0.084536	0.000000000	0.000000000	0.000000	
37963	-9.451509	-1.828351	-1.687116	0.367741	0.047846	-0.658758	0.982252	0.596822	-0.088246	0.000000000	0.000000000	0.000000	
37964	-9.564507	-1.810666	-1.675049	0.386486	0.048706	-0.695520	0.979362	0.600553	-0.090256	0.000000000	0.000000000	0.000000	
37965	-9.667229	-1.670537	-1.509937	0.416446	0.037777	-0.721178	0.977026	0.604777	-0.091165	0.000000000	0.000000000	0.000000	
37966	-9.703773	-1.475373	-1.454837	0.428680	0.015733	-0.744195	0.969958	0.606413	-0.096123	0.000000000	0.000000000	0.000000	
37967	-9.735297	-1.302582	-1.504944	0.438023	0.017546	-0.760745	0.968553	0.613918	-0.095746	0.000000000	0.000000000	0.000000	
37968	-9.796441	-1.218589	-1.399661	0.433419	0.015635	-0.773656	0.963253	0.615874	-0.100847	0.000000000	0.000000000	0.000000	
37969	-10.010004	-1.060316	-1.418524	0.426005	-0.001815	-0.779162	0.961390	0.620413	-0.102516	0.000000000	0.000000000	0.000000	
37970	-10.056302	-0.708115	-1.466154	0.384987	-0.012157	-0.783965	0.957025	0.624185	-0.103433	0.000000000	0.000000000	0.000000	
37971	-9.968298	-0.358399	-1.566506	0.354124	-0.003117	-0.772150	0.951020	0.627778	-0.107109	0.000000000	0.000000000	0.000000	
37972	-9.963786	-0.353434	-1.741032	0.310262	-0.008865	-0.766833	0.952582	0.634779	-0.105611	0.000000000	0.000000000	0.000000	
37973	-9.980189	-0.377709	-1.731464	0.261783	-0.010981	-0.765208	0.943624	0.634369	-0.110452	0.000000000	0.000000000	0.000000	
37974	-10.093904	-0.457827	-1.580773	0.194618	-0.021254	-0.728584	0.941131	0.640471	-0.111882	0.000000000	0.000000000	0.000000	
37975	-10.137429	-0.420410	-1.387068	0.125579	-0.027869	-0.690148	0.939061	0.644424	-0.112511	0.000000000	0.000000000	0.000000	
37976	-10.103354	-0.596739	-1.255680	0.071480	-0.018956	-0.675637	0.932695	0.646129	-0.112922	0.000000000	0.000000000	0.000000	
37977	-10.075145	-1.022837	-1.246315	0.030535	-0.022989	-0.693363	0.930896	0.651919	-0.112985	0.000000000	0.000000000	0.000000	
37978	-10.043610	-1.518845	-1.368471	0.021288	-0.034185	-0.712798	0.925355	0.652658	-0.114938	0.000000000	0.000000000	0.000000	
37979	-10.104321	-1.637113	-1.519078	0.033505	-0.080915	-0.718309	0.925376	0.662678	-0.113645	0.000000000	0.000000000	0.000000	
37980	-10.002251	-1.112307	-1.626546	0.043742	-0.101925	-0.712806	0.919324	0.664200	-0.115625	0.000000000	0.000000000	0.000000	
37981	-9.786659	-0.481200	-1.707779	0.033326	-0.114578	-0.661314	0.915267	0.667664	-0.118245	0.000000000	0.000000000	0.000000	
37982	-9.658852	-0.377731	-1.805876	0.005277	-0.131108	-0.628313	0.912173	0.671864	-0.119073	0.000000000	0.000000000	0.000000	
37983	-9.718277	-0.571605	-1.860886	-0.011465	-0.145896	-0.631150	0.906757	0.673268	-0.121011	0.000000000	0.000000000	0.000000	
37984	-9.825493	-0.614310	-1.808207	-0.004881	-0.189735	-0.608066	0.906040	0.684035	-0.119098	0.000000000	0.000000000	0.000000	
37985	-9.834331	-0.496842	-1.657535	0.032439	-0.208664	-0.590383	0.901743	0.683653	-0.124685	0.000000000	0.000000000	0.000000	
37986	-9.764430	-0.669226	-1.605073	0.093954	-0.216441	-0.567071	0.896318	0.684673	-0.126892	0.000000000	0.000000000	0.000000	
37987	-9.719096	-1.118730	-1.619640	0.129485	-0.238325	-0.578013	0.893126	0.688977	-0.129976	0.000000000	0.000000000	0.000000	
37988	-9.709168	-1.453206	-1.667599	0.172479	-0.263841	-0.592603	0.889336	0.694019	-0.132166	0.000000000	0.000000000	0.000000	
37989	-9.690152	-1.134195	-1.686614	0.248936	-0.290806	-0.577535	0.887778	0.701557	-0.135372	0.000000000	0.000000000	0.000000	
37990	-9.645816	-0.430563	-1.619432	0.327089	-0.269941	-0.541200	0.879731	0.698775	-0.142823	0.000000000	0.000000000	0.000000	
37991	-9.565786	0.145035	-1.447143	0.407140	-0.254556	-0.501183	0.878510	0.705841	-0.147071	0.000000000	0.000000000	0.000000	
37992	-9.581200	0.530824	-1.308311	0.462880	-0.229114	-0.441854	0.873747	0.706194	-0.151623	0.000000000	0.000000000	0.000000	
37993	-9.692920	1.248492	-1.176428	0.518571	-0.207230	-0.367738	0.871935	0.709761	-0.155151	0.000000000	0.000000000	0.000000	
37994	-9.914681	2.248866	-1.139959	0.569486	-0.193402	-0.256720	0.869950	0.713375	-0.159749	0.000000000	0.000000000	0.000000	
37995	-10.112401	3.085342	-1.177690	0.562499	-0.156023	-0.133037	0.866419	0.712084	-0.165293	0.000000000	0.000000000	0.000000	
37996	-10.354562	3.691813	-1.244161	0.524895	-0.164770	-0.024289	0.866003	0.712780	-0.169021	0.000000000	0.000000000	0.000000	
37997	-10.661744	4.328512	-1.133645	0.509680	-0.180608	0.101189	0.863636	0.709653	-0.177153	0.000000000	0.000000000	0.000000	
37998	-10.993261	5.010876	-0.721855	0.526251	-0.223662	0.243402	0.865598	0.711499	-0.178592	0.000000000	0.000000000	0.000000	
37999	-11.229691	5.302953	-0.073628	0.583984	-0.317746	0.406013	0.865294	0.710638	-0.185769	0.000000000	0.000000000	0.000000	
38000	-11.352920	5.232009	0.263552	0.596988	-0.436039	0.560959	0.866291	0.707794	-0.192349	0.000000000	0.000000000	0.000000	
38001	-11.291344	5.440519	0.301830	0.594863	-0.515862	0.730551	0.866279	0.703859	-0.198875	0.000000000	0.000000000	0.000000	
38002	-11.082211	5.886369	0.440477	0.588682	-0.514720	0.955507	0.865869	0.695053	-0.209183	0.000000000	0.000000000	0.000000	
38003	-10.977284	5.929960	0.490602	0.548886	-0.499063	1.187749	0.873599	0.694750	-0.212374	0.000000000	0.000000000	0.000000	
38004	-10.901969	5.252565	0.526120	0.456251	-0.514421	1.344094	0.877598	0.686087	-0.220399	0.000000000	0.000000000	0.000000	
38005	-10.570677	3.663667	0.202424	0.236162	-0.534947	1.383516	0.883189	0.678712	-0.226716	0.000000000	0.000000000	0.000000	
38006	-10.298899	1.679908	-0.852940	-0.172252	-0.523184	1.333561	0.888520	0.673303	-0.227074	0.000000000	0.000000000	0.000000	
38007	-10.567408	0.048157	-1.838328	-0.664660	-0.476936	1.285318	0.890421	0.666485	-0.227676	0.000000000	0.000000000	0.000000	
38008	-11.037496	-0.932365	-2.474218	-1.152469	-0.436753	1.283291	0.896895	0.668629	-0.224441	0.000000000	0.000000000	0.000000	
38009	-11.528385	-1.751459	-2.364115	-1.436894	-0.459134	1.350419	0.896951	0.660500	-0.220811	0.000000000	0.000000000	0.000000	
38010	-12.048668	-2.199176	-1.957384	-1.495716	-0.475399	1.442599	0.902925	0.660631	-0.214585	0.000000000	0.000000000	0.000000	
38011	-12.557683	-2.615197	-1.746691	-1.346722	-0.422744	1.497074	0.908594	0.654328	-0.207119	0.000000000	0.000000000	0.000000	
38012	-13.072227	-3.116812	-1.251530	-1.098779	-0.367758	1.530807	0.912255	0.648229	-0.205081	0.000000000	0.000000000	0.000000	
38013	-13.099854	-3.613511	-0.709007	-0.841452	-0.329361	1.557910	0.916912	0.642564	-0.200456	0.000000000	0.000000000	0.000000	
38014	-13.151003	-3.697062	-0.436449	-0.664333	-0.270562	1.544074	0.918927	0.632327	-0.201614	0.000000000	0.000000000	0.000000	
38015	-13.326972	-3.789008	-0.345474	-0.532946	-0.257650	1.573371	0.929573	0.631023	-0.196015	0.000000000	0.000000000	0.000000	
38016	-13.305971	-3.784849	-0.782996	-0.537809	-0.246537	1.602858	0.932164	0.619670	-0.195690	0.000000000	0.000000000	0.000000	
38017	-13.221208	-3.079283	-0.983614	-0.579914	-0.252137	1.632122	0.941183	0.615795	-0.192740	0.000000000	0.000000000	0.000000	
38018	-13.009185	-2.355631	-0.842468	-0.650846	-0.273449	1.674105	0.945534	0.605431	-0.192684	0.000000000	0.000000000	0.000000	
38019	-12.791737	-1.840214	-0.871153	-0.750808	-0.276491	1.738109	0.949286	0.596070	-0.191731	0.000000000	0.000000000	0.000000	
38020	-12.478964	-2.202149	-0.766398	-0.927066	-0.271997	1.763005	0.960531	0.589660	-0.184422	0.000000000	0.000000000	0.000000	
38021	-12.313492	-2.939349	-0.331734	-1.157031	-0.319477	1.728630	0.963612	0.580453	-0.184307	0.000000000	0.000000000	0.000000	
38022	-12.112258	-3.510408	0.069492	-1.307826	-0.348091	1.702928	0.971464	0.574973	-0.176157	0.000000000	0.000000000	0.000000	
38023	-11.759060	-3.850221	0.167046	-1.337593	-0.362114	1.702637	0.974625	0.563697	-0.174336	0.000000000	0.000000000	0.000000	
38024	-11.351896	-4.118754	0.180902	-1.244556	-0.325614	1.751841	0.980528	0.557431	-0.170296	0.000000000	0.000000000	0.000000	
38025	-11.134566	-3.929276	-0.163490	-1.073045	-0.377664	1.781991	0.989926	0.550124	-0.164708	0.000000000	0.000000000	0.000000	
38026	-10.700818	-3.436181	-0.132617	-0.911036	-0.332535	1.818588	0.991273	0.539114	-0.166712	0.000000000	0.000000000	0.000000	
38027	-10.066124	-3.371846	-0.102105	-0.793595	-0.337363	1.836395	1.003217	0.529621	-0.161108	0.000000000	0.000000000	0.000000	
38028	-9.474685	-3.456594	-0.064439	-0.703188	-0.335038	1.849493	1.006181	0.519482	-0.163790	0.000000000	0.000000000	0.000000	
38029	-9.026844	-3.239040	0.152787	-0.648124	-0.320225	1.827448	1.015304	0.510482	-0.161811	0.000000000	0.000000000	0.000000	
38030	-8.812074	-3.161105	0.233903	-0.668591	-0.291245	1.788560	1.019875	0.497643	-0.159779	0.000000000	0.000000000	0.000000	
38031	-8.797708	-3.160698	0.217155	-0.696388	-0.303647	1.731220	1.024975	0.487570	-0.157022	0.000000000	0.000000000	0.000000	
38032	-8.803000	-3.135535	0.128713	-0.728002	-0.293105	1.680352	1.032636	0.476870	-0.150790	0.000000000	0.000000000	0.000000	
38033	-8.729499	-3.081726	0.109540	-0.767120	-0.245075	1.618394	1.031842	0.467247	-0.155307	0.000000000	0.000000000	0.000000	
38034	-8.630446	-2.829381	-0.038677	-0.750290	-0.195890	1.538232	1.040951	0.458254	-0.150682	0.000000000	0.000000000	0.000000	
38035	-8.637138	-2.719413	-0.196415	-0.703707	-0.153628	1.498831	1.043605	0.448154	-0.148751	0.000000000	0.000000000	0.000000	
38036	-8.669907	-2.628973	-0.349355	-0.640206	-0.152607	1.445635	1.047245	0.441283	-0.147252	0.000000000	0.000000000	0.000000	
38037	-8.656359	-2.434504	-0.538158	-0.520899	-0.132752	1.422215	1.054249	0.432581	-0.144353	0.000000000	0.000000000	0.000000	
38038	-8.496734	-2.535039	-0.746341	-0.393967	-0.172546	1.392248	1.054708	0.422869	-0.146272	0.000000000	0.000000000	0.000000	
38039	-8.147333	-2.814260	-1.033667	-0.246545	-0.183029	1.341119	1.064156	0.412874	-0.142693	0.000000000	0.000000000	0.000000	
38040	-7.893691	-3.098358	-1.225277	-0.116795	-0.165340	1.256775	1.064968	0.404919	-0.145101	0.000000000	0.000000000	0.000000	
38041	-7.847682	-3.132578	-1.306619	0.006445	-0.123903	1.150376	1.070040	0.395677	-0.145911	0.000000000	0.000000000	0.000000	
38042	-7.693842	-3.013164	-1.493192	0.103477	-0.082509	1.069633	1.070773	0.385157	-0.147423	0.000000000	0.000000000	0.000000	
38043	-7.336978	-2.858776	-1.950093	0.220012	-0.044673	0.997188	1.072311	0.377517	-0.147661	0.000000000	0.000000000	0.000000	
38044	-6.922960	-2.661298	-2.194255	0.352287	0.010915	0.968173	1.078797	0.368284	-0.145067	0.000000000	0.000000000	0.000000	
38045	-6.727404	-2.597416	-2.316340	0.454702	0.093879	0.938224	1.077613	0.361172	-0.149586	0.000000000	0.000000000	0.000000	
38046	-6.855614	-2.680662	-2.292346	0.518107	0.203845	0.843696	1.081542	0.350306	-0.147577	0.000000000	0.000000000	0.000000	
38047	-6.940227	-2.446654	-1.814026	0.570465	0.329166	0.713149	1.080213	0.340823	-0.149746	0.000000000	0.000000000	0.000000	
38048	-7.311076	-2.348772	-1.756263	0.628319	0.533098	0.519182	1.084997	0.335427	-0.145111	0.000000000	0.000000000	0.000000	
38049	-7.496121	-1.830105	-1.335113	0.712436	0.699546	0.319686	1.089311	0.328390	-0.139729	0.000000000	0.000000000	0.000000	
38050	-7.473977	-1.076180	-1.119665	0.815965	0.855333	0.170906	1.085584	0.324899	-0.138160	0.000000000	0.000000000	0.000000	
38051	-7.563346	-0.557855	-0.930505	0.975460	0.949365	0.071248	1.090525	0.322108	-0.129649	0.000000000	0.000000000	0.000000	
38052	-7.574876	-0.094150	-0.545400	1.043744	0.991479	-0.027075	1.088160	0.318947	-0.125868	0.000000000	0.000000000	0.000000	
38053	-7.773103	0.371742	0.203272	0.905157	0.981210	-0.092207	1.092428	0.314991	-0.118341	0.000000000	0.000000000	0.000000	
38054	-8.251186	0.629007	0.913870	0.599882	0.909325	-0.180209	1.094749	0.312617	-0.111722	0.000000000	0.000000000	0.000000	
38055	-8.936699	1.097771	1.407190	0.236890	0.794843	-0.286903	1.090389	0.313063	-0.106848	0.000000000	0.000000000	0.000000	
38056	-9.626197	1.820826	1.867145	-0.001232	0.631925	-0.332199	1.090786	0.314097	-0.100457	0.000000000	0.000000000	0.000000	
38057	-9.785943	2.532516	1.877142	-0.136974	0.441352	-0.323780	1.085935	0.314916	-0.098127	0.000000000	0.000000000	0.000000	
38058	-9.626891	3.378894	1.437439	-0.243294	0.335475	-0.274681	1.091780	0.313990	-0.092052	0.000000000	0.000000000	0.000000	
38059	-9.553175	4.476696	1.098326	-0.329341	0.309678	-0.201375	1.089086	0.313150	-0.089858	0.000000000	0.000000000	0.000000	
38060	-9.479190	5.430389	1.120157	-0.334213	0.295393	-0.126743	1.088511	0.314646	-0.085381	0.000000000	0.000000000	0.000000	
38061	-9.575374	6.209370	0.998632	-0.346594	0.298495	-0.055747	1.089537	0.313067	-0.082283	0.000000000	0.000000000	0.000000	
38062	-9.789974	6.739627	0.924932	-0.300322	0.313148	0.047873	1.083797	0.312419	-0.083072	0.000000000	0.000000000	0.000000	
38063	-9.958991	6.949138	0.710008	-0.203551	0.279362	0.131359	1.090508	0.309285	-0.074710	0.000000000	0.000000000	0.000000	
38064	-9.863786	6.967693	0.329800	-0.132780	0.212210	0.192438	1.088006	0.308386	-0.073961	0.000000000	0.000000000	0.000000	
38065	-9.693569	7.089455	-0.172365	-0.030539	0.213183	0.268467	1.089105	0.304360	-0.072339	0.000000000	0.000000000	0.000000	
38066	-9.628231	7.344841	-0.392271	0.070810	0.233392	0.333495	1.089247	0.300506	-0.069323	0.000000000	0.000000000	0.000000	
38067	-9.704737	7.925225	-0.676464	0.228125	0.270304	0.363801	1.088249	0.297553	-0.069154	0.000000000	0.000000000	0.000000	
38068	-9.818091	8.093960	-1.008602	0.417123	0.308369	0.404423	1.091713	0.292303	-0.062753	0.000000000	0.000000000	0.000000	
38069	-9.891462	7.851033	-1.326599	0.513185	0.288689	0.390111	1.085574	0.289681	-0.064117	0.000000000	0.000000000	0.000000	
38070	-9.624164	7.136279	-1.702481	0.597341	0.220958	0.339580	1.087948	0.288192	-0.062120	0.000000000	0.000000000	0.000000	
38071	-8.888440	5.914315	-2.071831	0.642443	0.130794	0.276666	1.088662	0.285084	-0.060514	0.000000000	0.000000000	0.000000	
38072	-8.037886	3.935193	-2.489408	0.696990	0.034053	0.184235	1.088475	0.284088	-0.061993	0.000000000	0.000000000	0.000000	
38073	-7.430895	1.869881	-3.102832	0.581856	0.005612	0.012788	1.085737	0.282767	-0.060866	0.000000000	0.000000000	0.000000	
38074	-7.452210	0.162394	-2.957663	0.358668	0.021535	-0.177285	1.079012	0.285106	-0.063676	0.000000000	0.000000000	0.000000	
38075	-8.388608	-1.889469	-2.247564	0.071555	-0.028966	-0.405161	1.081124	0.290094	-0.061367	0.000000000	0.000000000	0.000000	
38076	-10.763936	-2.960616	-0.610515	-0.324614	-0.050252	-0.605240	1.076993	0.294818	-0.062656	0.000000000	0.000000000	0.000000	
38077	-13.147621	-3.022641	3.116450	-0.594248	-0.240960	-0.751390	1.072934	0.301843	-0.062064	0.000000000	0.000000000	0.000000	
38078	-14.545509	0.696187	5.682116	-0.829279	-0.427201	-0.766885	1.074136	0.310274	-0.062959	0.000000000	0.000000000	0.000000	
38079	-14.033130	9.019215	4.537427	-1.017900	-0.218955	-0.404451	1.069034	0.314395	-0.063260	0.000000000	0.000000000	0.000000	
38080	-13.643790	15.019703	2.763157	-1.092103	0.037874	0.011221	1.072045	0.315687	-0.058015	0.000000000	0.000000000	0.000000	
38081	-12.817966	12.425879	1.773971	-1.373442	0.047061	-0.124147	1.065996	0.319312	-0.056796	0.000000000	0.000000000	0.000000	
38082	-12.161839	6.015434	-0.070081	-1.987121	0.062208	-0.457418	1.066587	0.326089	-0.048350	0.000000000	0.000000000	0.000000	
38083	-11.889410	-0.753047	-2.468570	-2.137419	0.128472	-0.511604	1.061741	0.333230	-0.039470	0.000000000	0.000000000	0.000000	
38084	-10.948830	-6.696409	-3.095816	-1.713956	0.099556	-0.482303	1.057979	0.340869	-0.034881	0.000000000	0.000000000	0.000000	
38085	-8.880731	-10.426893	-2.991661	-1.068557	0.221562	-0.586939	1.059169	0.346909	-0.027328	0.000000000	0.000000000	0.000000	
38086	-8.099585	-11.313661	-3.152925	-0.452654	0.421245	-0.609053	1.057218	0.356547	-0.024715	0.000000000	0.000000000	0.000000	
38087	-7.911283	-9.264004	-3.642379	0.155976	0.572803	-0.745455	1.060604	0.362867	-0.016218	0.000000000	0.000000000	0.000000	
38088	-8.718199	-7.016481	-3.368179	0.691440	0.633142	-0.923391	1.054159	0.369008	-0.015133	0.000000000	0.000000000	0.000000	
38089	-9.795518	-5.424403	-3.029441	1.080678	0.597485	-1.055879	1.054547	0.377459	-0.011317	0.000000000	0.000000000	0.000000	
38090	-10.414533	-3.534567	-2.712527	1.346515	0.541523	-1.056327	1.051707	0.385365	-0.011826	0.000000000	0.000000000	0.000000	
38091	-10.653685	-1.682159	-2.154519	1.372721	0.473213	-1.022998	1.050988	0.394697	-0.016017	0.000000000	0.000000000	0.000000	
38092	-11.112465	-0.084818	-2.019568	1.126707	0.383881	-1.014859	1.054100	0.401842	-0.013884	0.000000000	0.000000000	0.000000	
38093	-11.065543	1.234923	-1.827823	0.797629	0.297794	-0.970404	1.046631	0.407718	-0.018960	0.000000000	0.000000000	0.000000	
38094	-10.228541	1.418156	-1.577504	0.478761	0.265644	-0.931673	1.051542	0.415671	-0.013256	0.000000000	0.000000000	0.000000	
38095	-9.637970	0.453574	-1.642992	0.104948	0.230278	-0.917074	1.044210	0.418367	-0.018354	0.000000000	0.000000000	0.000000	
38096	-9.548613	-0.367572	-1.758161	-0.202772	0.218432	-0.887181	1.045815	0.428230	-0.015633	0.000000000	0.000000000	0.000000	
38097	-9.974899	-0.412916	-1.776907	-0.342615	0.197572	-0.872923	1.046481	0.434414	-0.011423	0.000000000	0.000000000	0.000000	
38098	-9.851317	-0.981706	-2.092828	-0.312648	0.138919	-0.886740	1.042686	0.441312	-0.013595	0.000000000	0.000000000	0.000000	
38099	-9.459676	-1.010779	-1.923463	-0.198353	0.234415	-0.809688	1.046726	0.448165	-0.007564	0.000000000	0.000000000	0.000000	
38100	-9.729621	-0.802410	-2.305645	-0.157702	0.068158	-0.911070	1.041041	0.451305	-0.012679	0.000000000	0.000000000	0.000000	
38101	-9.523355	-0.315521	-2.025926	-0.105581	0.165476	-0.949537	1.047191	0.462627	-0.007388	0.000000000	0.000000000	0.000000	
38102	-9.587664	-0.655986	-2.049910	-0.027418	0.204636	-0.918656	1.042571	0.464543	-0.008473	0.000000000	0.000000000	0.000000	
38103	-9.463120	-0.967913	-2.241410	0.073241	0.200655	-0.910865	1.041494	0.472107	-0.006352	0.000000000	0.000000000	0.000000	
38104	-9.519757	-0.715332	-2.198222	0.136656	0.218372	-0.932667	1.045192	0.477859	-0.002473	0.000000000	0.000000000	0.000000	
38105	-9.844349	-0.650155	-1.994681	0.269145	0.228285	-0.958653	1.039142	0.483219	-0.007062	0.000000000	0.000000000	0.000000	
38106	-9.800338	-0.537006	-1.834497	0.422034	0.222923	-0.933982	1.039407	0.487044	-0.006476	0.000000000	0.000000000	0.000000	
38107	-9.684879	-0.409868	-1.923011	0.556352	0.205283	-0.950035	1.032149	0.488878	-0.012902	0.000000000	0.000000000	0.000000	
38108	-9.792860	-0.244920	-1.822433	0.660821	0.199501	-0.955048	1.038142	0.499311	-0.011337	0.000000000	0.000000000	0.000000	
38109	-9.682787	-0.376474	-1.746085	0.788567	0.214878	-0.963701	1.037565	0.505188	-0.012508	0.000000000	0.000000000	0.000000	
38110	-9.363541	-0.862295	-1.846989	0.865979	0.220682	-0.978218	1.031343	0.510063	-0.018172	0.000000000	0.000000000	0.000000	
38111	-9.178944	-1.012958	-1.880692	0.928484	0.217287	-0.989075	1.031866	0.515486	-0.020334	0.000000000	0.000000000	0.000000	
38112	-9.205908	-0.825607	-1.940360	1.003056	0.223214	-0.996094	1.026962	0.519559	-0.027903	0.000000000	0.000000000	0.000000	
38113	-9.391211	-0.623404	-1.827742	1.059964	0.226314	-1.004975	1.029506	0.529134	-0.026975	0.000000000	0.000000000	0.000000	
38114	-9.590838	-0.280636	-1.841762	1.125211	0.207593	-0.988016	1.027742	0.532525	-0.032354	0.000000000	0.000000000	0.000000	
38115	-9.832586	0.307524	-1.800658	1.155014	0.204225	-0.979490	1.024172	0.536429	-0.038379	0.000000000	0.000000000	0.000000	
38116	-9.897307	0.791121	-1.508733	1.171870	0.180568	-0.971112	1.024564	0.541457	-0.040686	0.000000000	0.000000000	0.000000	
38117	-9.747107	1.009851	-1.444236	1.157021	0.130109	-0.952856	1.017800	0.545176	-0.050236	0.000000000	0.000000000	0.000000	
38118	-9.784372	0.929584	-1.554207	1.082359	0.121549	-0.925527	1.020937	0.551772	-0.050490	0.000000000	0.000000000	0.000000	
38119	-9.815733	0.791716	-1.484902	0.990196	0.084242	-0.937974	1.015371	0.552415	-0.056019	0.000000000	0.000000000	0.000000	
38120	-9.784943	0.497109	-1.623712	0.910933	0.054520	-0.913484	1.014122	0.559247	-0.060933	0.000000000	0.000000000	0.000000	
38121	-9.606415	0.567274	-1.862924	0.838191	0.017434	-0.897343	1.012735	0.562388	-0.066422	0.000000000	0.000000000	0.000000	
38122	-9.532888	0.776335	-1.853345	0.828830	0.000081	-0.871612	1.004606	0.564187	-0.075422	0.000000000	0.000000000	0.000000	
38123	-9.731749	0.763984	-1.819694	0.815795	-0.036486	-0.842117	1.008293	0.570620	-0.074713	0.000000000	0.000000000	0.000000	
38124	-9.515764	1.199289	-2.106609	0.756150	-0.068162	-0.859139	1.001676	0.572462	-0.080963	0.000000000	0.000000000	0.000000	
38125	-9.039622	1.430093	-2.121305	0.720507	-0.025176	-0.824399	1.002498	0.578908	-0.084947	0.000000000	0.000000000	0.000000	
38126	-9.059506	0.875460	-1.872873	0.653564	-0.042228	-0.848689	0.999800	0.580996	-0.088549	0.000000000	0.000000000	0.000000	
38127	-9.200539	0.376362	-1.918366	0.556707	-0.055771	-0.872151	0.992853	0.584756	-0.093479	0.000000000	0.000000000	0.000000	
38128	-9.223708	0.315381	-2.025952	0.491434	-0.047978	-0.884429	0.992959	0.589935	-0.093553	0.000000000	0.000000000	0.000000	
38129	-9.426473	0.398986	-2.006603	0.469988	-0.043490	-0.887209	0.985335	0.592139	-0.099602	0.000000000	0.000000000	0.000000	
38130	-9.454759	0.373470	-1.920521	0.433589	-0.035369	-0.872595	0.984495	0.598545	-0.100918	0.000000000	0.000000000	0.000000	
38131	-9.528196	0.634058	-1.781685	0.419536	-0.028860	-0.845872	0.980553	0.600704	-0.103941	0.000000000	0.000000000	0.000000	
38132	-9.625205	0.878074	-1.508952	0.435304	-0.020242	-0.803315	0.976334	0.606449	-0.107212	0.000000000	0.000000000	0.000000	
38133	-9.540321	0.372682	-1.270161	0.417768	-0.068959	-0.797940	0.973175	0.611247	-0.109494	0.000000000	0.000000000	0.000000	
38134	-9.617899	-0.203440	-1.404201	0.349834	-0.097938	-0.821313	0.967697	0.611538	-0.115948	0.000000000	0.000000000	0.000000	
38135	-9.786038	-0.200704	-1.561832	0.344293	-0.100857	-0.851718	0.963593	0.618480	-0.116419	0.000000000	0.000000000	0.000000	
38136	-9.889996	-0.302554	-1.556994	0.348048	-0.097201	-0.861799	0.960469	0.623777	-0.120811	0.000000000	0.000000000	0.000000	
38137	-9.997108	-0.835011	-1.753148	0.316332	-0.097394	-0.860977	0.955838	0.629538	-0.121859	0.000000000	0.000000000	0.000000	
38138	-10.242325	-0.353191	-1.979846	0.316191	-0.078940	-0.851646	0.951438	0.633612	-0.123570	0.000000000	0.000000000	0.000000	
38139	-10.286205	0.485533	-1.718878	0.340266	-0.049165	-0.809055	0.946198	0.636428	-0.127203	0.000000000	0.000000000	0.000000	
38140	-10.200018	0.512263	-1.510954	0.289920	-0.053957	-0.789031	0.945143	0.643183	-0.127603	0.000000000	0.000000000	0.000000	
38141	-10.155041	0.704541	-1.522872	0.200455	-0.055529	-0.809764	0.936019	0.645314	-0.130180	0.000000000	0.000000000	0.000000	
38142	-10.177567	1.093451	-1.274058	0.172507	-0.062948	-0.798823	0.934838	0.651403	-0.130596	0.000000000	0.000000000	0.000000	
38143	-10.064927	0.477565	-1.322226	0.142766	-0.090714	-0.802722	0.928587	0.654057	-0.134166	0.000000000	0.000000000	0.000000	
38144	-9.994077	-0.096173	-1.669179	0.068190	-0.102293	-0.816025	0.923783	0.659996	-0.136282	0.000000000	0.000000000	0.000000	
38145	-10.031915	0.483671	-1.719116	0.045715	-0.096809	-0.799515	0.919907	0.666444	-0.137405	0.000000000	0.000000000	0.000000	
38146	-10.029584	0.664100	-1.441720	0.084805	-0.110914	-0.740311	0.912919	0.669579	-0.140358	0.000000000	0.000000000	0.000000	
38147	-9.891535	0.118903	-1.389472	0.070972	-0.161483	-0.738637	0.910684	0.677657	-0.138574	0.000000000	0.000000000	0.000000	
38148	-9.962342	0.653866	-1.508728	0.037343	-0.191761	-0.708373	0.904499	0.679984	-0.143599	0.000000000	0.000000000	0.000000	
38149	-10.087176	1.925970	-1.139927	0.142624	-0.231014	-0.637787	0.901252	0.685133	-0.144957	0.000000000	0.000000000	0.000000	
38150	-10.039987	1.700046	-0.714511	0.278832	-0.310474	-0.557003	0.897552	0.687443	-0.148227	0.000000000	0.000000000	0.000000	
38151	-9.767484	1.453773	-0.690957	0.290052	-0.306853	-0.566277	0.890446	0.692292	-0.153818	0.000000000	0.000000000	0.000000	
38152	-9.850482	2.172359	-0.599743	0.342101	-0.291586	-0.523561	0.889624	0.698680	-0.154736	0.000000000	0.000000000	0.000000	
38153	-10.078429	2.352601	-0.326914	0.480953	-0.304119	-0.463799	0.882686	0.698210	-0.162751	0.000000000	0.000000000	0.000000	
38154	-10.019359	2.212837	-0.884067	0.539518	-0.339288	-0.410106	0.879912	0.702625	-0.167924	0.000000000	0.000000000	0.000000	
38155	-10.016233	3.187092	-1.679793	0.542785	-0.338790	-0.321577	0.875847	0.706107	-0.173722	0.000000000	0.000000000	0.000000	
38156	-10.399660	4.401522	-1.669385	0.574123	-0.378020	-0.170064	0.872511	0.705546	-0.180570	0.000000000	0.000000000	0.000000	
38157	-10.853354	5.551645	-1.075597	0.572048	-0.497786	0.045811	0.871767	0.708298	-0.185887	0.000000000	0.000000000	0.000000	
38158	-11.354968	7.165266	-0.443327	0.569797	-0.620848	0.326265	0.868982	0.704145	-0.194985	0.000000000	0.000000000	0.000000	
38159	-11.755960	8.474125	0.145693	0.555315	-0.727352	0.636162	0.871334	0.704818	-0.202233	0.000000000	0.000000000	0.000000	
38160	-11.969651	8.676065	0.585869	0.512900	-0.759287	0.874007	0.870971	0.698867	-0.211186	0.000000000	0.000000000	0.000000	
38161	-12.135299	8.380985	0.655237	0.350155	-0.775567	1.096533	0.872914	0.689782	-0.219882	0.000000000	0.000000000	0.000000	
38162	-12.281471	7.729819	0.356270	0.093174	-0.785138	1.314004	0.876543	0.684262	-0.224459	0.000000000	0.000000000	0.000000	
38163	-12.245641	6.311984	-0.108136	-0.163674	-0.824261	1.507391	0.878978	0.677841	-0.230317	0.000000000	0.000000000	0.000000	
38164	-11.867210	4.382696	-1.534142	-0.471126	-0.805263	1.673706	0.886998	0.674591	-0.229943	0.000000000	0.000000000	0.000000	
38165	-11.396398	2.316719	-3.703807	-0.900027	-0.704732	1.797990	0.887217	0.663536	-0.231627	0.000000000	0.000000000	0.000000	
38166	-11.829060	1.029185	-5.107282	-1.289594	-0.580049	1.887810	0.898120	0.656025	-0.226470	0.000000000	0.000000000	0.000000	
38167	-13.276565	-0.288575	-5.058645	-1.400763	-0.504051	1.941498	0.902228	0.646691	-0.223110	0.000000000	0.000000000	0.000000	
38168	-15.026865	-1.850037	-4.627306	-1.372713	-0.467701	1.957180	0.905495	0.639927	-0.218457	0.000000000	0.000000000	0.000000	
38169	-16.549997	-3.212297	-4.210443	-1.353851	-0.449102	1.930271	0.914104	0.633422	-0.213444	0.000000000	0.000000000	0.000000	
38170	-16.994011	-4.217834	-3.423881	-1.351819	-0.363969	1.880790	0.915982	0.624111	-0.211822	0.000000000	0.000000000	0.000000	
38171	-16.723558	-4.568691	-2.460808	-1.303057	-0.309946	1.814590	0.925982	0.619086	-0.200876	0.000000000	0.000000000	0.000000	
38172	-15.951138	-4.533377	-1.969023	-1.259060	-0.272552	1.751812	0.926690	0.606603	-0.200158	0.000000000	0.000000000	0.000000	
38173	-15.201384	-4.451008	-1.768868	-1.235671	-0.269921	1.730407	0.939388	0.610342	-0.190665	0.000000000	0.000000000	0.000000	
38174	-14.402606	-4.455492	-1.817430	-1.211703	-0.252999	1.812308	0.944410	0.595191	-0.187169	0.000000000	0.000000000	0.000000	
38175	-13.584060	-4.768606	-1.373643	-1.211863	-0.242587	1.904246	0.946376	0.586577	-0.183417	0.000000000	0.000000000	0.000000	
38176	-13.147916	-4.845020	-0.709457	-1.198587	-0.318497	1.942800	0.956208	0.580008	-0.173556	0.000000000	0.000000000	0.000000	
38177	-12.535137	-4.721091	-0.179236	-1.137905	-0.336439	1.968651	0.957634	0.567327	-0.173851	0.000000000	0.000000000	0.000000	
38178	-11.845202	-4.632729	0.221799	-1.112812	-0.330616	2.023849	0.972376	0.560015	-0.167905	0.000000000	0.000000000	0.000000	
38179	-11.084631	-4.465677	0.536733	-1.078532	-0.268842	2.071744	0.971924	0.542895	-0.167973	0.000000000	0.000000000	0.000000	
38180	-10.456102	-4.322949	0.440574	-1.081429	-0.233261	2.064134	0.980801	0.535987	-0.162681	0.000000000	0.000000000	0.000000	
38181	-10.139478	-4.186532	0.201260	-1.122475	-0.220888	2.036148	0.990467	0.525763	-0.156971	0.000000000	0.000000000	0.000000	
38182	-9.740934	-4.222638	0.033522	-1.140897	-0.264536	1.973119	0.990786	0.513808	-0.156407	0.000000000	0.000000000	0.000000	
38183	-9.099557	-4.282310	0.032900	-1.170703	-0.302353	1.992968	1.003772	0.504832	-0.147153	0.000000000	0.000000000	0.000000	
38184	-8.340092	-4.358545	0.278406	-1.156611	-0.306190	1.974279	1.004732	0.491969	-0.149467	0.000000000	0.000000000	0.000000	
38185	-8.062563	-4.001222	0.299807	-1.125585	-0.337645	1.896784	1.016486	0.485306	-0.142126	0.000000000	0.000000000	0.000000	
38186	-7.583207	-3.806909	0.493087	-1.121853	-0.285626	1.859774	1.018287	0.470653	-0.139769	0.000000000	0.000000000	0.000000	
38187	-7.267400	-4.058095	0.559632	-1.078890	-0.233508	1.794421	1.021645	0.462608	-0.136049	0.000000000	0.000000000	0.000000	
38188	-7.251552	-4.468482	0.466214	-0.965072	-0.170904	1.713849	1.030867	0.448877	-0.132125	0.000000000	0.000000000	0.000000	
38189	-7.355048	-4.441694	0.518917	-0.904267	-0.127080	1.602614	1.030334	0.437387	-0.130687	0.000000000	0.000000000	0.000000	
38190	-7.092236	-4.210487	0.638301	-0.944272	-0.087353	1.537799	1.037979	0.430140	-0.124554	0.000000000	0.000000000	0.000000	
38191	-6.757137	-3.844543	0.772017	-1.033820	-0.061380	1.531741	1.040170	0.418128	-0.121747	0.000000000	0.000000000	0.000000	
38192	-7.063462	-3.586064	0.705466	-1.084318	-0.029409	1.551035	1.046299	0.409916	-0.118505	0.000000000	0.000000000	0.000000	
38193	-7.563174	-3.544624	0.588803	-1.064570	-0.054221	1.500563	1.049721	0.397707	-0.113632	0.000000000	0.000000000	0.000000	
38194	-7.904924	-3.011386	0.539131	-1.024261	-0.055315	1.404946	1.050448	0.390224	-0.112069	0.000000000	0.000000000	0.000000	
38195	-8.057912	-2.602159	0.271675	-0.945639	-0.051929	1.255931	1.058463	0.379299	-0.106477	0.000000000	0.000000000	0.000000	
38196	-7.918468	-2.656507	-0.165981	-0.848388	-0.041208	1.101360	1.060781	0.373105	-0.103206	0.000000000	0.000000000	0.000000	
38197	-7.698893	-2.935996	-0.704214	-0.686858	-0.040995	0.972872	1.065506	0.364600	-0.100194	0.000000000	0.000000000	0.000000	
38198	-7.559798	-3.271581	-1.070261	-0.492607	-0.047958	0.833496	1.066275	0.356948	-0.100616	0.000000000	0.000000000	0.000000	
38199	-7.289105	-3.580343	-1.364698	-0.237779	-0.074579	0.727532	1.066000	0.350754	-0.101623	0.000000000	0.000000000	0.000000	
38200	-6.993552	-3.619013	-1.436711	0.023426	-0.059695	0.654848	1.071633	0.342789	-0.101059	0.000000000	0.000000000	0.000000	
38201	-6.707260	-3.517634	-1.269594	0.252833	0.021897	0.558173	1.075076	0.338331	-0.104348	0.000000000	0.000000000	0.000000	
38202	-6.460355	-3.388356	-1.733577	0.577029	0.163778	0.493319	1.079684	0.331273	-0.103977	0.000000000	0.000000000	0.000000	
38203	-6.709278	-2.943886	-1.532344	0.972266	0.374609	0.351609	1.077893	0.324897	-0.104822	0.000000000	0.000000000	0.000000	
38204	-7.076017	-2.315974	-1.192264	1.399253	0.577397	0.206396	1.080040	0.319284	-0.105528	0.000000000	0.000000000	0.000000	
38205	-7.202639	-1.554940	-0.924077	1.764686	0.741407	0.092111	1.082576	0.313794	-0.103030	0.000000000	0.000000000	0.000000	
38206	-7.310498	-0.740973	-0.325963	1.982860	0.874443	0.010313	1.081505	0.308805	-0.104740	0.000000000	0.000000000	0.000000	
38207	-7.823650	-0.069165	0.506765	1.923407	0.888727	-0.026622	1.086508	0.304246	-0.100875	0.000000000	0.000000000	0.000000	
38208	-8.240473	0.733005	1.344237	1.632918	0.835466	-0.081356	1.086934	0.298788	-0.100239	0.000000000	0.000000000	0.000000	
38209	-8.502485	1.743763	1.956918	1.265825	0.765452	-0.088572	1.087852	0.296524	-0.096757	0.000000000	0.000000000	0.000000	
38210	-8.713178	2.975720	2.218200	0.960206	0.682954	-0.095551	1.089516	0.292713	-0.093771	0.000000000	0.000000000	0.000000	
38211	-8.895205	5.097800	1.891690	0.697153	0.622008	-0.066375	1.087339	0.289100	-0.091569	0.000000000	0.000000000	0.000000	
38212	-9.224559	7.466901	1.921638	0.463645	0.578456	0.084784	1.093256	0.283338	-0.084212	0.000000000	0.000000000	0.000000	
38213	-9.655231	9.871102	1.927787	0.164958	0.500569	0.231028	1.090850	0.279435	-0.084413	0.000000000	0.000000000	0.000000	
38214	-10.176209	12.209347	1.785767	-0.143249	0.453099	0.414195	1.093397	0.273662	-0.078738	0.000000000	0.000000000	0.000000	
38215	-10.559149	14.164072	1.777346	-0.340579	0.464936	0.592367	1.095104	0.266631	-0.074987	0.000000000	0.000000000	0.000000	
38216	-10.657953	15.096762	1.457453	-0.297077	0.418180	0.710599	1.094854	0.260798	-0.072413	0.000000000	0.000000000	0.000000	
38217	-10.365139	14.540545	0.405029	-0.168601	0.338467	0.775530	1.098282	0.254263	-0.066952	0.000000000	0.000000000	0.000000	
38218	-9.821003	13.216770	-1.028066	-0.095916	0.250615	0.771833	1.094695	0.248381	-0.065266	0.000000000	0.000000000	0.000000	
38219	-9.436025	11.504123	-2.193406	-0.053902	0.191790	0.736744	1.099520	0.242675	-0.059703	0.000000000	0.000000000	0.000000	
38220	-9.395070	9.755855	-2.657951	-0.048839	0.087738	0.672072	1.096931	0.237764	-0.058336	0.000000000	0.000000000	0.000000	
38221	-9.267612	7.881664	-2.625352	-0.101260	-0.086462	0.590426	1.099958	0.233636	-0.059101	0.000000000	0.000000000	0.000000	
38222	-8.890252	5.843878	-2.342024	-0.211444	-0.250983	0.506586	1.099025	0.230753	-0.060384	0.000000000	0.000000000	0.000000	
38223	-8.237885	3.877861	-1.834193	-0.290104	-0.327279	0.428426	1.093562	0.229689	-0.060629	0.000000000	0.000000000	0.000000	
38224	-7.912411	2.111333	-1.304461	-0.340966	-0.373771	0.389303	1.097685	0.226030	-0.059462	0.000000000	0.000000000	0.000000	
38225	-7.698912	0.768180	-0.662090	-0.357295	-0.381732	0.304307	1.091006	0.226608	-0.064274	0.000000000	0.000000000	0.000000	
38226	-7.515824	-0.191243	-0.414008	-0.325165	-0.380438	0.178956	1.089044	0.225299	-0.065742	0.000000000	0.000000000	0.000000	
38227	-7.553591	-1.005620	-0.435817	-0.270834	-0.302061	0.028053	1.087007	0.226582	-0.068779	0.000000000	0.000000000	0.000000	
38228	-7.334027	-2.054445	-0.933718	-0.237147	-0.204650	-0.126726	1.086045	0.228744	-0.067366	0.000000000	0.000000000	0.000000	
38229	-6.837663	-1.946726	-3.688276	-0.456610	0.131090	-0.173742	1.084392	0.229223	-0.064427	0.000000000	0.000000000	0.000000	
38230	-7.563823	-5.466344	-2.665772	-0.762776	0.201094	-0.297381	1.078334	0.233386	-0.063335	0.000000000	0.000000000	0.000000	
38231	-8.344449	-9.910532	-1.012433	-0.679998	-0.178531	-1.071853	1.078229	0.243923	-0.059001	0.000000000	0.000000000	0.000000	
38232	-10.122211	-8.393794	0.338216	-0.374936	-0.051078	-1.515077	1.069751	0.257291	-0.060363	0.000000000	0.000000000	0.000000	
38233	-12.314934	-2.987555	2.006391	0.250615	0.305324	-1.402971	1.071099	0.266095	-0.057802	0.000000000	0.000000000	0.000000	
38234	-14.883672	5.563797	2.832248	0.873115	0.690040	-0.997435	1.071743	0.274023	-0.053972	0.000000000	0.000000000	0.000000	
38235	-17.692705	16.568899	3.037721	1.337067	0.946576	-0.564153	1.067234	0.279379	-0.049190	0.000000000	0.000000000	0.000000	
38236	-19.767380	21.139093	4.318150	1.269926	0.915033	-0.507430	1.064491	0.281614	-0.041938	0.000000000	0.000000000	0.000000	
38237	-18.160086	14.585492	3.692425	-0.146798	0.393921	-0.875866	1.057831	0.292341	-0.042543	0.000000000	0.000000000	0.000000	
38238	-14.290212	3.306025	0.442434	-1.653686	-0.216437	-1.052035	1.060582	0.303017	-0.036691	0.000000000	0.000000000	0.000000	
38239	-9.518032	-4.180095	-1.415463	-2.229665	-0.396244	-1.009754	1.058537	0.316583	-0.032986	0.000000000	0.000000000	0.000000	
38240	-6.328383	-9.030245	-0.662522	-1.650340	-0.037341	-0.943262	1.054978	0.325605	-0.029428	0.000000000	0.000000000	0.000000	
38241	-7.037267	-11.526437	-2.006461	-0.765625	0.294790	-0.895109	1.054360	0.337456	-0.025114	0.000000000	0.000000000	0.000000	
38242	-8.645445	-9.592508	-3.873746	-0.126596	0.419652	-0.972593	1.050572	0.346453	-0.023955	0.000000000	0.000000000	0.000000	
38243	-9.037834	-5.036124	-4.113015	0.375035	0.487117	-1.148132	1.050489	0.354845	-0.016330	0.000000000	0.000000000	0.000000	
38244	-8.969104	-1.706932	-3.748349	0.806224	0.529846	-1.387826	1.045245	0.365455	-0.016444	0.000000000	0.000000000	0.000000	
38245	-9.423151	-0.706702	-3.388912	0.754313	0.494442	-1.459880	1.045893	0.378542	-0.015078	0.000000000	0.000000000	0.000000	
38246	-10.257424	0.673880	-3.136551	0.538212	0.394342	-1.455145	1.043782	0.392055	-0.015880	0.000000000	0.000000000	0.000000	
38247	-10.620228	1.803314	-3.028175	0.416905	0.335443	-1.378163	1.038342	0.403917	-0.014538	0.000000000	0.000000000	0.000000	
38248	-10.082994	1.809292	-3.014330	0.336456	0.318942	-1.264394	1.040007	0.410942	-0.010649	0.000000000	0.000000000	0.000000	
38249	-9.552584	0.870306	-2.910009	0.243008	0.306019	-1.146971	1.032007	0.421183	-0.012938	0.000000000	0.000000000	0.000000	
38250	-9.427155	0.210147	-2.867358	0.155124	0.306016	-1.038573	1.034741	0.430026	-0.007635	0.000000000	0.000000000	0.000000	
38251	-9.444057	0.404946	-2.439321	0.114040	0.275053	-0.955767	1.028154	0.432760	-0.013081	0.000000000	0.000000000	0.000000	
38252	-9.938509	-0.004605	-2.001517	0.145863	0.220587	-0.905654	1.032569	0.443077	-0.009901	0.000000000	0.000000000	0.000000	
38253	-10.330380	-0.100466	-1.977282	0.171946	0.260158	-0.925617	1.030320	0.449982	-0.008527	0.000000000	0.000000000	0.000000	
38254	-10.588754	-1.059112	-1.802902	0.312975	0.170365	-0.900962	1.026082	0.456012	-0.012194	0.000000000	0.000000000	0.000000	
38255	-9.708345	-0.922168	-1.961458	0.370078	0.149867	-0.990561	1.029742	0.465111	-0.008945	0.000000000	0.000000000	0.000000	
38256	-8.942464	-1.765916	-2.294825	0.375539	0.215612	-1.012902	1.025760	0.470749	-0.012598	0.000000000	0.000000000	0.000000	
38257	-9.272442	-2.151236	-2.409427	0.373689	0.210144	-1.013702	1.033313	0.481444	-0.007219	0.000000000	0.000000000	0.000000	
38258	-9.340996	-1.746072	-2.327915	0.442772	0.216800	-1.053937	1.025079	0.485718	-0.012495	0.000000000	0.000000000	0.000000	
38259	-9.429441	-0.974536	-2.093230	0.526709	0.265723	-1.101424	1.021633	0.493452	-0.015297	0.000000000	0.000000000	0.000000	
38260	-9.690305	-0.532736	-1.882424	0.541611	0.302494	-1.117810	1.023572	0.500338	-0.013907	0.000000000	0.000000000	0.000000	
38261	-9.893306	-0.432612	-1.846333	0.523061	0.271205	-1.125231	1.017719	0.506683	-0.016752	0.000000000	0.000000000	0.000000	
38262	-9.817268	-0.545758	-1.910999	0.549230	0.233765	-1.119650	1.020849	0.515396	-0.014072	0.000000000	0.000000000	0.000000	
38263	-9.532813	-0.488555	-1.997309	0.556754	0.219873	-1.141889	1.011371	0.518427	-0.021828	0.000000000	0.000000000	0.000000	
38264	-9.478760	-0.408094	-1.887353	0.540045	0.206878	-1.151227	1.013733	0.529117	-0.022092	0.000000000	0.000000000	0.000000	
38265	-9.410368	-0.302731	-1.500073	0.511259	0.173767	-1.136661	1.013538	0.536456	-0.023092	0.000000000	0.000000000	0.000000	
38266	-9.224693	-0.197704	-1.328071	0.581171	0.183384	-1.127173	1.007209	0.541969	-0.028228	0.000000000	0.000000000	0.000000	
38267	-9.289760	-0.033705	-1.459435	0.635099	0.205863	-1.103815	1.010025	0.549683	-0.027035	0.000000000	0.000000000	0.000000	
38268	-9.506049	0.006651	-1.275130	0.648188	0.209661	-1.104580	1.004388	0.556216	-0.033704	0.000000000	0.000000000	0.000000	
38269	-9.452466	-0.043438	-1.246511	0.635200	0.199412	-1.117586	1.005179	0.565985	-0.032230	0.000000000	0.000000000	0.000000	
38270	-9.107224	-0.369535	-1.607967	0.595943	0.200049	-1.106844	1.000921	0.569128	-0.036588	0.000000000	0.000000000	0.000000	
38271	-9.099204	-0.910917	-1.923770	0.558638	0.203378	-1.121775	0.996144	0.573856	-0.041099	0.000000000	0.000000000	0.000000	
38272	-9.290943	-1.225388	-1.859167	0.522403	0.184742	-1.141251	0.996944	0.582559	-0.039502	0.000000000	0.000000000	0.000000	
38273	-9.275338	-1.306150	-1.892684	0.543922	0.164622	-1.153173	0.988448	0.587097	-0.044926	0.000000000	0.000000000	0.000000	
38274	-9.350057	-1.115442	-1.725186	0.577517	0.192239	-1.177857	0.988865	0.594338	-0.043502	0.000000000	0.000000000	0.000000	
