// Start Time: 0
// Sample rate: 120.0Hz
// Scenario: 5.9
// Firmware Version: 2.5.1
Counter	Acc_X	Acc_Y	Acc_Z	Gyr_X	Gyr_Y	Gyr_Z	Mag_X	Mag_Y	Mag_Z	Latitude	Longitude	Altitude	
37328	-9.404340	-1.299929	-1.902026	-0.011651	0.008457	-0.011531	0.832098	0.534800	-0.180303	0.000000000	0.000000000	0.000000	
37329	-9.583867	-1.081019	-1.724994	-0.022515	-0.000317	0.013088	0.837329	0.540627	-0.172503	0.000000000	0.000000000	0.000000	
37330	-9.476634	-1.139148	-1.991027	-0.018881	0.002414	0.013995	0.832469	0.532536	-0.183227	0.000000000	0.000000000	0.000000	
37331	-9.454252	-1.280825	-1.882798	0.001034	-0.013381	-0.003358	0.833207	0.535949	-0.175950	0.000000000	0.000000000	0.000000	
37332	-9.583983	-1.047489	-1.740064	-0.006161	-0.007765	0.006686	0.832790	0.536143	-0.180400	0.000000000	0.000000000	0.000000	
37333	-9.426651	-1.151139	-2.003202	-0.014506	-0.001494	-0.011597	0.833129	0.534670	-0.177159	0.000000000	0.000000000	0.000000	
37334	-9.439439	-1.266906	-1.830423	0.007518	-0.002546	-0.005144	0.838889	0.540987	-0.174291	0.000000000	0.000000000	0.000000	
37335	-9.560364	-1.033042	-1.766944	-0.017028	0.008663	0.003977	0.832770	0.533757	-0.180664	0.000000000	0.000000000	0.000000	
37336	-9.397898	-1.213417	-1.985394	-0.011710	0.001230	-0.007926	0.835433	0.538537	-0.173815	0.000000000	0.000000000	0.000000	
37337	-9.455307	-1.214933	-1.744969	0.011381	0.016572	0.001315	0.832707	0.530734	-0.181600	0.000000000	0.000000000	0.000000	
37338	-9.518009	-1.047049	-1.829395	-0.010843	-0.016855	0.003884	0.834534	0.537508	-0.174804	0.000000000	0.000000000	0.000000	
37339	-9.357363	-1.256507	-1.984867	-0.006338	-0.009780	-0.012527	0.836549	0.537213	-0.173748	0.000000000	0.000000000	0.000000	
37340	-9.486039	-1.186397	-1.716496	0.008417	-0.004403	-0.007893	0.832332	0.534102	-0.176533	0.000000000	0.000000000	0.000000	
37341	-9.504142	-1.046752	-1.877500	-0.019033	0.008476	-0.019785	0.835454	0.537289	-0.175689	0.000000000	0.000000000	0.000000	
37342	-9.375977	-1.295029	-1.931153	-0.011678	0.007528	-0.013371	0.829636	0.528210	-0.188343	0.000000000	0.000000000	0.000000	
37343	-9.519146	-1.138752	-1.688388	-0.006105	-0.000549	0.003971	0.834386	0.537779	-0.174947	0.000000000	0.000000000	0.000000	
37344	-9.475853	-1.099126	-1.910270	-0.022706	-0.011317	0.002971	0.835249	0.535433	-0.178915	0.000000000	0.000000000	0.000000	
37345	-9.366501	-1.295005	-1.938431	0.002836	-0.006232	-0.014315	0.831961	0.534831	-0.178031	0.000000000	0.000000000	0.000000	
37346	-9.545623	-1.071621	-1.718308	-0.013540	-0.010523	-0.000649	0.835568	0.537308	-0.176085	0.000000000	0.000000000	0.000000	
37347	-9.471214	-1.096651	-1.924754	-0.014478	-0.006874	-0.002482	0.829548	0.530774	-0.183124	0.000000000	0.000000000	0.000000	
37348	-9.399532	-1.314302	-1.896978	-0.000821	-0.009818	-0.011578	0.837608	0.540363	-0.172487	0.000000000	0.000000000	0.000000	
37349	-9.526410	-1.086100	-1.703783	-0.009814	0.001225	-0.005170	0.834332	0.533083	-0.180170	0.000000000	0.000000000	0.000000	
37350	-9.480788	-1.070326	-1.930002	-0.009849	0.002179	-0.004272	0.834477	0.534714	-0.177885	0.000000000	0.000000000	0.000000	
37351	-9.418652	-1.295114	-1.902003	-0.009886	0.001165	-0.012463	0.833948	0.538156	-0.177521	0.000000000	0.000000000	0.000000	
37352	-9.550240	-1.033504	-1.704643	-0.017180	-0.002373	-0.007938	0.829662	0.532461	-0.179098	0.000000000	0.000000000	0.000000	
37353	-9.481098	-1.151309	-1.957157	-0.019004	0.001333	-0.005183	0.836427	0.539566	-0.175772	0.000000000	0.000000000	0.000000	
37354	-9.413566	-1.333584	-1.865283	-0.002460	0.012933	-0.011490	0.830527	0.529245	-0.187489	0.000000000	0.000000000	0.000000	
37355	-9.564791	-1.057176	-1.728034	-0.013500	-0.005957	0.000284	0.834415	0.536658	-0.176686	0.000000000	0.000000000	0.000000	
37356	-9.445463	-1.139350	-1.974492	-0.017246	0.001224	-0.015241	0.835541	0.537560	-0.178769	0.000000000	0.000000000	0.000000	
37357	-9.439405	-1.288430	-1.825191	0.006523	-0.011653	-0.007000	0.831565	0.533878	-0.177650	0.000000000	0.000000000	0.000000	
37358	-9.550598	-1.076233	-1.739765	-0.011763	-0.019595	0.002977	0.834828	0.537466	-0.176798	0.000000000	0.000000000	0.000000	
37359	-9.405003	-1.156107	-1.984091	-0.006101	0.012164	-0.001496	0.829243	0.530523	-0.183543	0.000000000	0.000000000	0.000000	
37360	-9.436815	-1.238427	-1.807028	0.003001	-0.002448	0.003060	0.834655	0.539556	-0.172924	0.000000000	0.000000000	0.000000	
37361	-9.526979	-1.061786	-1.766646	-0.006118	-0.002315	0.007602	0.833808	0.534121	-0.179666	0.000000000	0.000000000	0.000000	
37362	-9.385615	-1.177884	-1.950227	0.004608	-0.005394	-0.022548	0.833821	0.535746	-0.177255	0.000000000	0.000000000	0.000000	
37363	-9.445859	-1.224443	-1.754453	-0.002491	-0.000637	-0.001508	0.836244	0.535161	-0.178589	0.000000000	0.000000000	0.000000	
37364	-9.527167	-1.080754	-1.785455	-0.020835	-0.007717	0.001173	0.829961	0.530282	-0.180953	0.000000000	0.000000000	0.000000	
37365	-9.385897	-1.246946	-1.975223	-0.019113	-0.009647	-0.008885	0.836886	0.538074	-0.175071	0.000000000	0.000000000	0.000000	
37366	-9.436426	-1.264994	-1.763311	0.013032	-0.007982	0.003975	0.832196	0.531329	-0.183106	0.000000000	0.000000000	0.000000	
37367	-9.536800	-1.080661	-1.794972	-0.007897	-0.005820	0.020380	0.835137	0.538414	-0.174100	0.000000000	0.000000000	0.000000	
37368	-9.404939	-1.246927	-1.970265	-0.009797	0.013919	-0.011520	0.832194	0.533499	-0.180965	0.000000000	0.000000000	0.000000	
37369	-9.472329	-1.231368	-1.778082	0.015736	-0.008031	-0.001496	0.831638	0.530159	-0.180856	0.000000000	0.000000000	0.000000	
37370	-9.570277	-1.013629	-1.808037	-0.003142	0.026816	0.009542	0.834931	0.535892	-0.177325	0.000000000	0.000000000	0.000000	
37371	-9.398149	-1.265781	-2.008328	-0.000491	0.028483	-0.003233	0.832671	0.533194	-0.179998	0.000000000	0.000000000	0.000000	
37372	-9.488659	-1.207713	-1.740035	0.014122	0.010259	0.008612	0.837423	0.540328	-0.168742	0.000000000	0.000000000	0.000000	
37373	-9.539605	-1.027788	-1.843997	0.003059	-0.007690	0.022206	0.834015	0.530973	-0.180720	0.000000000	0.000000000	0.000000	
37374	-9.381295	-1.270719	-1.991576	0.006617	0.005640	-0.007874	0.832616	0.533533	-0.178661	0.000000000	0.000000000	0.000000	
37375	-9.507815	-1.169389	-1.750243	0.023239	-0.000627	0.018630	0.835357	0.534557	-0.177164	0.000000000	0.000000000	0.000000	
37376	-9.508963	-1.056257	-1.882067	-0.004263	-0.004040	0.017638	0.831726	0.533030	-0.179516	0.000000000	0.000000000	0.000000	
37377	-9.376260	-1.280484	-1.962632	-0.006042	0.010405	0.007648	0.837521	0.538157	-0.173828	0.000000000	0.000000000	0.000000	
37378	-9.509906	-1.119441	-1.722443	0.004950	0.005798	0.010395	0.831053	0.527972	-0.185713	0.000000000	0.000000000	0.000000	
37379	-9.494842	-1.084815	-1.900803	-0.008016	-0.007740	0.007575	0.835360	0.534322	-0.174883	0.000000000	0.000000000	0.000000	
37380	-9.414258	-1.290066	-1.942926	0.001051	-0.013343	0.001197	0.835769	0.535365	-0.177276	0.000000000	0.000000000	0.000000	
37381	-9.521752	-1.131414	-1.712505	-0.000629	-0.011388	0.016725	0.833787	0.531203	-0.179929	0.000000000	0.000000000	0.000000	
37382	-9.456692	-1.084902	-1.903521	-0.013410	0.000512	0.012149	0.838039	0.535222	-0.176607	0.000000000	0.000000000	0.000000	
37383	-9.375793	-1.285612	-1.912151	0.008422	-0.013348	0.009413	0.832993	0.529398	-0.181446	0.000000000	0.000000000	0.000000	
37384	-9.528928	-1.081218	-1.718255	0.008609	-0.004118	0.023148	0.837836	0.538034	-0.170993	0.000000000	0.000000000	0.000000	
37385	-9.464185	-1.084631	-1.939450	-0.002402	0.004999	0.013098	0.835086	0.531181	-0.179183	0.000000000	0.000000000	0.000000	
37386	-9.403946	-1.228563	-1.865082	0.010272	-0.010639	0.008508	0.833468	0.531396	-0.178339	0.000000000	0.000000000	0.000000	
37387	-9.543658	-1.021148	-1.767325	-0.017105	-0.009442	0.014862	0.838133	0.534421	-0.179551	0.000000000	0.000000000	0.000000	
37388	-9.447897	-1.103476	-1.982392	-0.013389	0.012274	0.003061	0.833178	0.530201	-0.178487	0.000000000	0.000000000	0.000000	
37389	-9.472564	-1.166696	-1.808173	0.003946	0.002109	0.003074	0.839114	0.536394	-0.172793	0.000000000	0.000000000	0.000000	
37390	-9.584357	-0.992268	-1.784358	-0.013413	0.000502	0.008518	0.834171	0.528229	-0.184862	0.000000000	0.000000000	0.000000	
37391	-9.414391	-1.158587	-1.967168	-0.007921	-0.000416	0.014897	0.834908	0.531375	-0.177585	0.000000000	0.000000000	0.000000	
37392	-9.474689	-1.181218	-1.779073	0.001235	-0.000544	0.010369	0.835967	0.532724	-0.180745	0.000000000	0.000000000	0.000000	
37393	-9.527455	-1.032764	-1.820007	-0.009696	0.012248	0.003990	0.834184	0.531655	-0.178030	0.000000000	0.000000000	0.000000	
37394	-9.390599	-1.199210	-1.971347	0.001152	0.005711	-0.004243	0.839407	0.536086	-0.174787	0.000000000	0.000000000	0.000000	
37395	-9.519834	-1.171678	-1.759692	0.001183	-0.011408	0.014910	0.833718	0.530184	-0.181004	0.000000000	0.000000000	0.000000	
37396	-9.528092	-1.053784	-1.886754	0.001153	-0.004166	0.006693	0.838380	0.533515	-0.171086	0.000000000	0.000000000	0.000000	
37397	-9.416495	-1.218510	-1.932354	0.004816	0.002980	-0.001494	0.835136	0.528678	-0.182796	0.000000000	0.000000000	0.000000	
37398	-9.559942	-1.081134	-1.717996	0.003966	-0.009570	0.018566	0.836523	0.532930	-0.176288	0.000000000	0.000000000	0.000000	
37399	-9.475845	-1.084800	-1.910559	0.003041	0.003091	0.007625	0.838264	0.535963	-0.175255	0.000000000	0.000000000	0.000000	
37400	-9.422744	-1.190508	-1.836902	-0.003355	0.003976	0.003971	0.834775	0.530569	-0.177457	0.000000000	0.000000000	0.000000	
37401	-9.521979	-1.052416	-1.742886	-0.006056	-0.002243	0.016731	0.836754	0.533633	-0.177081	0.000000000	0.000000000	0.000000	
37402	-9.416493	-1.130128	-1.938935	-0.009947	-0.008776	-0.006146	0.833205	0.523346	-0.189064	0.000000000	0.000000000	0.000000	
37403	-9.408171	-1.209851	-1.807845	-0.007174	-0.010634	-0.004307	0.837973	0.533703	-0.175401	0.000000000	0.000000000	0.000000	
37404	-9.508102	-1.035404	-1.791328	0.001146	-0.011426	0.012135	0.838534	0.533104	-0.179793	0.000000000	0.000000000	0.000000	
37405	-9.388042	-1.170681	-1.955150	0.001114	-0.004244	0.002106	0.835513	0.530112	-0.179022	0.000000000	0.000000000	0.000000	
37406	-9.469689	-1.085853	-1.761845	-0.004281	-0.005041	0.012147	0.838305	0.531900	-0.176719	0.000000000	0.000000000	0.000000	
37407	-9.447018	-1.132801	-1.885843	-0.007901	0.010383	0.002156	0.831283	0.526443	-0.184221	0.000000000	0.000000000	0.000000	
37408	-9.418241	-1.192708	-1.865685	-0.002358	0.015792	0.003100	0.840646	0.535909	-0.170558	0.000000000	0.000000000	0.000000	
37409	-9.500996	-1.047329	-1.795945	-0.000699	-0.002435	-0.001534	0.838861	0.527571	-0.181103	0.000000000	0.000000000	0.000000	
37410	-9.466161	-1.156594	-1.890000	-0.002429	0.007630	0.003080	0.837740	0.529467	-0.179026	0.000000000	0.000000000	0.000000	
37411	-9.479726	-1.133231	-1.811186	-0.007911	0.001344	0.009440	0.838807	0.532477	-0.177630	0.000000000	0.000000000	0.000000	
37412	-9.501472	-1.101913	-1.842823	-0.017165	-0.000510	-0.004279	0.833404	0.527707	-0.179273	0.000000000	0.000000000	0.000000	
37413	-9.449255	-1.190236	-1.865473	-0.009656	0.006878	0.016766	0.839591	0.533488	-0.176246	0.000000000	0.000000000	0.000000	
37414	-9.522816	-1.113894	-1.828007	0.000413	0.003234	0.022255	0.833520	0.524789	-0.188513	0.000000000	0.000000000	0.000000	
37415	-9.499355	-1.104106	-1.871586	-0.010516	0.024088	0.004952	0.835911	0.531230	-0.177124	0.000000000	0.000000000	0.000000	
37416	-9.482298	-1.147417	-1.830072	-0.009818	0.001261	-0.002431	0.837824	0.529674	-0.177680	0.000000000	0.000000000	0.000000	
37417	-9.494378	-1.094719	-1.850225	-0.006822	0.015099	0.021359	0.834516	0.528919	-0.179345	0.000000000	0.000000000	0.000000	
37418	-9.472976	-1.099502	-1.857506	0.004028	0.004952	0.014940	0.839610	0.531308	-0.178117	0.000000000	0.000000000	0.000000	
37419	-9.484925	-1.054068	-1.863120	0.008575	0.006698	0.009468	0.832835	0.524709	-0.183859	0.000000000	0.000000000	0.000000	
37420	-9.513625	-1.061104	-1.869934	-0.007888	0.015824	-0.002385	0.840779	0.533347	-0.172824	0.000000000	0.000000000	0.000000	
37421	-9.501480	-1.075630	-1.845752	0.012195	0.001216	0.009465	0.837173	0.529735	-0.179193	0.000000000	0.000000000	0.000000	
37422	-9.494539	-1.104152	-1.866828	0.007569	-0.002419	0.005796	0.836582	0.529388	-0.177483	0.000000000	0.000000000	0.000000	
37423	-9.475406	-1.099462	-1.862285	0.001275	0.006762	0.011291	0.838265	0.529361	-0.179532	0.000000000	0.000000000	0.000000	
37424	-9.480088	-1.099516	-1.852648	0.014974	0.005737	0.009483	0.833328	0.523593	-0.182621	0.000000000	0.000000000	0.000000	
37425	-9.466000	-1.104163	-1.876664	0.015909	0.003064	0.016777	0.839621	0.531334	-0.175703	0.000000000	0.000000000	0.000000	
37426	-9.470575	-1.070855	-1.858104	-0.013556	-0.008699	-0.000667	0.836525	0.525059	-0.184987	0.000000000	0.000000000	0.000000	
37427	-9.470716	-1.085081	-1.872211	0.008495	-0.007813	0.014898	0.839483	0.530832	-0.173430	0.000000000	0.000000000	0.000000	
37428	-9.482633	-1.061171	-1.872593	0.010226	-0.013349	0.006660	0.837297	0.527046	-0.181594	0.000000000	0.000000000	0.000000	
37429	-9.523220	-1.032374	-1.877630	0.001277	0.012196	0.005832	0.833652	0.525564	-0.181936	0.000000000	0.000000000	0.000000	
37430	-9.513637	-1.084981	-1.869452	0.014130	0.011257	0.014076	0.840289	0.529193	-0.178341	0.000000000	0.000000000	0.000000	
37431	-9.518081	-1.013553	-1.839667	0.013987	0.010163	-0.006947	0.835939	0.525276	-0.180998	0.000000000	0.000000000	0.000000	
37432	-9.508724	-1.027771	-1.858652	0.002928	-0.002468	-0.004269	0.841122	0.534672	-0.169588	0.000000000	0.000000000	0.000000	
37433	-9.480225	-1.104191	-1.866947	-0.003340	0.009441	0.001251	0.836151	0.525192	-0.182059	0.000000000	0.000000000	0.000000	
37434	-9.484994	-1.099403	-1.867004	0.004878	0.009367	-0.000563	0.836304	0.526684	-0.179639	0.000000000	0.000000000	0.000000	
37435	-9.446626	-1.066211	-1.848803	0.007609	0.002115	0.006700	0.840339	0.528891	-0.177533	0.000000000	0.000000000	0.000000	
37436	-9.446956	-1.099405	-1.881719	-0.002615	-0.007920	-0.006128	0.837117	0.526041	-0.179993	0.000000000	0.000000000	0.000000	
37437	-9.442240	-1.120875	-1.886124	-0.000679	0.012007	-0.014270	0.842485	0.532104	-0.174466	0.000000000	0.000000000	0.000000	
37438	-9.475494	-1.097007	-1.871930	0.010343	0.003899	0.003075	0.833798	0.522026	-0.186211	0.000000000	0.000000000	0.000000	
37439	-9.482496	-1.056496	-1.858293	-0.000601	0.008519	0.002154	0.838508	0.529323	-0.175628	0.000000000	0.000000000	0.000000	
37440	-9.501418	-1.085232	-1.838362	0.015715	-0.002600	-0.007892	0.839467	0.528909	-0.178120	0.000000000	0.000000000	0.000000	
37441	-9.501359	-1.099609	-1.830875	0.006531	-0.011593	-0.003369	0.836514	0.525001	-0.180696	0.000000000	0.000000000	0.000000	
37442	-9.494370	-1.080392	-1.850514	-0.008082	-0.003353	-0.009761	0.842247	0.529738	-0.178229	0.000000000	0.000000000	0.000000	
37443	-9.475354	-1.085169	-1.857775	0.001083	-0.011494	0.003916	0.836248	0.524823	-0.182723	0.000000000	0.000000000	0.000000	
37444	-9.456294	-1.092367	-1.860190	0.004701	-0.002580	-0.013402	0.840221	0.532576	-0.170575	0.000000000	0.000000000	0.000000	
37445	-9.451613	-1.094701	-1.869779	0.003828	-0.008815	0.001184	0.838300	0.526369	-0.181132	0.000000000	0.000000000	0.000000	
37446	-9.456295	-1.051758	-1.863408	-0.003503	-0.009678	0.000248	0.837560	0.525227	-0.179563	0.000000000	0.000000000	0.000000	
37447	-9.470616	-1.063658	-1.863047	-0.003485	-0.006952	-0.000647	0.841182	0.528059	-0.179628	0.000000000	0.000000000	0.000000	
37448	-9.489743	-1.056409	-1.867831	-0.010779	0.003939	-0.010660	0.836021	0.524551	-0.179651	0.000000000	0.000000000	0.000000	
37449	-9.466107	-1.053918	-1.892071	-0.006243	0.002962	-0.014318	0.842371	0.530652	-0.171787	0.000000000	0.000000000	0.000000	
37450	-9.470600	-1.075614	-1.860407	-0.000825	-0.008886	-0.011606	0.837465	0.521492	-0.185461	0.000000000	0.000000000	0.000000	
37451	-9.475295	-1.015940	-1.856772	-0.004602	-0.015311	-0.021692	0.838907	0.528639	-0.178152	0.000000000	0.000000000	0.000000	
37452	-9.480051	-1.027882	-1.854093	-0.013725	-0.006218	-0.029888	0.836747	0.527569	-0.181493	0.000000000	0.000000000	0.000000	
37453	-9.518285	-1.061174	-1.857898	-0.010010	-0.006159	-0.021642	0.837071	0.527441	-0.178524	0.000000000	0.000000000	0.000000	
37454	-9.494314	-1.101932	-1.842883	-0.013725	-0.008930	-0.028049	0.841800	0.532055	-0.176517	0.000000000	0.000000000	0.000000	
37455	-9.475453	-1.147201	-1.863721	-0.017309	-0.006107	-0.019822	0.835758	0.525838	-0.181681	0.000000000	0.000000000	0.000000	
37456	-9.499133	-1.063664	-1.850811	-0.015607	-0.013476	-0.029902	0.838802	0.531215	-0.173202	0.000000000	0.000000000	0.000000	
37457	-9.494462	-1.128097	-1.856749	0.000910	-0.013526	-0.021644	0.835315	0.523284	-0.184248	0.000000000	0.000000000	0.000000	
37458	-9.475370	-1.159207	-1.853883	-0.004436	-0.007010	-0.007931	0.837413	0.529399	-0.177570	0.000000000	0.000000000	0.000000	
37459	-9.487181	-1.147320	-1.842028	-0.008086	-0.011475	-0.001559	0.840665	0.531794	-0.176850	0.000000000	0.000000000	0.000000	
37460	-9.489532	-1.080455	-1.843356	0.011971	-0.011689	-0.009762	0.835928	0.527584	-0.178992	0.000000000	0.000000000	0.000000	
37461	-9.456196	-1.118717	-1.847664	0.001014	-0.013402	-0.005222	0.838868	0.528834	-0.176545	0.000000000	0.000000000	0.000000	
37462	-9.493762	-1.071294	-1.785927	-0.008041	0.000270	-0.009751	0.832642	0.521211	-0.189092	0.000000000	0.000000000	0.000000	
37463	-9.441615	-1.121345	-1.818944	0.004839	0.008375	-0.006969	0.839347	0.530894	-0.177863	0.000000000	0.000000000	0.000000	
37464	-9.484691	-1.118740	-1.833029	-0.000765	-0.002520	-0.011568	0.840125	0.529742	-0.178754	0.000000000	0.000000000	0.000000	
37465	-9.475384	-1.142476	-1.856620	-0.014435	0.002145	-0.009744	0.836313	0.527078	-0.179505	0.000000000	0.000000000	0.000000	
37466	-9.475197	-1.128283	-1.837715	-0.013478	0.005788	-0.007906	0.840921	0.529644	-0.179379	0.000000000	0.000000000	0.000000	
37467	-9.460950	-1.085275	-1.848298	-0.017155	0.004895	-0.008843	0.834499	0.523229	-0.186173	0.000000000	0.000000000	0.000000	
37468	-9.444406	-1.128200	-1.861967	-0.014375	0.002221	0.000288	0.840515	0.532801	-0.172570	0.000000000	0.000000000	0.000000	
37469	-9.484716	-1.080502	-1.838598	-0.015251	0.006786	0.000306	0.838478	0.526042	-0.182731	0.000000000	0.000000000	0.000000	
37470	-9.473102	-1.085075	-1.872191	-0.017178	0.000380	-0.006115	0.837877	0.528135	-0.179015	0.000000000	0.000000000	0.000000	
37471	-9.444429	-1.085186	-1.867632	-0.009869	-0.011392	0.007542	0.839492	0.529025	-0.177717	0.000000000	0.000000000	0.000000	
37472	-9.460792	-1.083004	-1.831551	-0.003550	-0.012460	-0.005232	0.833545	0.525140	-0.181405	0.000000000	0.000000000	0.000000	
37473	-9.446688	-1.099607	-1.852927	-0.011753	-0.004262	-0.010696	0.839965	0.531123	-0.176889	0.000000000	0.000000000	0.000000	
37474	-9.474947	-1.075920	-1.814781	-0.015277	0.002236	0.001198	0.835510	0.521144	-0.189999	0.000000000	0.000000000	0.000000	
37475	-9.475359	-1.094720	-1.857583	0.000225	0.002086	-0.004253	0.838216	0.528629	-0.178058	0.000000000	0.000000000	0.000000	
37476	-9.482367	-1.109145	-1.840439	-0.017185	-0.005944	-0.000650	0.837581	0.528146	-0.179300	0.000000000	0.000000000	0.000000	
37477	-9.463259	-1.066216	-1.841466	-0.004386	-0.000641	-0.007021	0.835967	0.527390	-0.180599	0.000000000	0.000000000	0.000000	
37478	-9.472841	-1.099603	-1.843111	-0.006181	0.003916	-0.007909	0.840352	0.528581	-0.179543	0.000000000	0.000000000	0.000000	
37479	-9.508580	-1.094764	-1.838109	-0.000772	-0.002518	-0.012479	0.834158	0.525171	-0.184990	0.000000000	0.000000000	0.000000	
37480	-9.494254	-1.070925	-1.838711	-0.013629	-0.009699	-0.011621	0.840456	0.532309	-0.173511	0.000000000	0.000000000	0.000000	
37481	-9.501468	-1.094750	-1.842968	-0.013506	0.004866	-0.010648	0.838901	0.526343	-0.180427	0.000000000	0.000000000	0.000000	
37482	-9.494189	-1.075750	-1.831416	-0.017182	0.000363	-0.007937	0.837376	0.527691	-0.178104	0.000000000	0.000000000	0.000000	
37483	-9.482286	-1.082929	-1.833771	-0.009998	-0.016969	-0.007077	0.839199	0.527798	-0.180145	0.000000000	0.000000000	0.000000	
37484	-9.503742	-1.094827	-1.830951	-0.009918	-0.000659	-0.015227	0.833861	0.522949	-0.182991	0.000000000	0.000000000	0.000000	
37485	-9.499276	-1.123275	-1.861604	-0.006232	0.001162	-0.012470	0.840488	0.529685	-0.177392	0.000000000	0.000000000	0.000000	
37486	-9.479901	-1.082936	-1.833791	-0.004422	0.003810	-0.018867	0.836468	0.525633	-0.185930	0.000000000	0.000000000	0.000000	
37487	-9.475364	-1.104271	-1.857390	-0.007993	0.001260	-0.001527	0.838774	0.531334	-0.175886	0.000000000	0.000000000	0.000000	
37488	-9.460967	-1.118704	-1.847624	-0.004269	0.008510	-0.000584	0.836785	0.526842	-0.183098	0.000000000	0.000000000	0.000000	
37489	-9.446780	-1.104315	-1.862428	-0.017102	0.010366	-0.006998	0.833174	0.525069	-0.182901	0.000000000	0.000000000	0.000000	
37490	-9.446636	-1.085313	-1.848418	-0.015343	0.002155	-0.007942	0.838109	0.529771	-0.179810	0.000000000	0.000000000	0.000000	
37491	-9.451213	-1.056781	-1.829762	-0.013572	-0.006039	-0.007061	0.835419	0.525344	-0.182638	0.000000000	0.000000000	0.000000	
37492	-9.456263	-1.075669	-1.858128	0.001005	-0.011603	-0.007965	0.841287	0.534921	-0.169177	0.000000000	0.000000000	0.000000	
37493	-9.480037	-1.044614	-1.851356	-0.003535	-0.001618	-0.015241	0.835968	0.524022	-0.182737	0.000000000	0.000000000	0.000000	
37494	-9.479947	-1.085290	-1.838541	-0.003472	0.004753	-0.014295	0.837004	0.527355	-0.179600	0.000000000	0.000000000	0.000000	
37495	-9.484948	-1.097048	-1.862253	0.001033	0.001042	-0.019776	0.838860	0.530939	-0.178964	0.000000000	0.000000000	0.000000	
37496	-9.494304	-1.082830	-1.843268	0.001112	0.001143	-0.007904	0.836410	0.526709	-0.180170	0.000000000	0.000000000	0.000000	
37497	-9.484811	-1.092373	-1.847954	0.004885	0.012068	-0.003295	0.841159	0.531743	-0.175615	0.000000000	0.000000000	0.000000	
37498	-9.501338	-1.102014	-1.828428	0.004690	0.003703	-0.024321	0.834622	0.523375	-0.186434	0.000000000	0.000000000	0.000000	
37499	-9.487109	-1.094822	-1.838289	0.002943	-0.002474	-0.003348	0.837508	0.531332	-0.176093	0.000000000	0.000000000	0.000000	
37500	-9.475102	-1.073414	-1.831624	0.004753	-0.002516	-0.006095	0.838142	0.529348	-0.179271	0.000000000	0.000000000	0.000000	
37501	-9.475430	-1.101833	-1.864636	-0.002558	-0.000644	-0.007005	0.836597	0.526376	-0.181633	0.000000000	0.000000000	0.000000	
37502	-9.498968	-1.047067	-1.834354	-0.015356	0.000353	-0.007939	0.841663	0.530418	-0.178667	0.000000000	0.000000000	0.000000	
37503	-9.482645	-1.085049	-1.872111	-0.006164	0.012059	-0.014272	0.834209	0.523702	-0.181900	0.000000000	0.000000000	0.000000	
37504	-9.484894	-1.080367	-1.857792	-0.010031	-0.007999	-0.022569	0.841344	0.535381	-0.170516	0.000000000	0.000000000	0.000000	
37505	-9.475236	-1.116311	-1.842754	-0.020844	0.012077	-0.023422	0.837859	0.527082	-0.179282	0.000000000	0.000000000	0.000000	
37506	-9.475230	-1.104372	-1.842995	-0.019092	-0.006937	-0.011619	0.836025	0.526949	-0.179656	0.000000000	0.000000000	0.000000	
37507	-9.475282	-1.118665	-1.847504	-0.002470	0.015662	-0.014249	0.838651	0.529653	-0.180046	0.000000000	0.000000000	0.000000	
37508	-9.460689	-1.099803	-1.819218	-0.006259	-0.007903	-0.006130	0.836444	0.526552	-0.179631	0.000000000	0.000000000	0.000000	
37509	-9.446921	-1.118541	-1.876535	-0.006215	0.001177	-0.008837	0.840743	0.533872	-0.175643	0.000000000	0.000000000	0.000000	
37510	-9.446479	-1.085431	-1.831623	-0.018067	0.004892	-0.008850	0.834905	0.525641	-0.186423	0.000000000	0.000000000	0.000000	
37511	-9.442016	-1.118655	-1.862179	-0.007914	0.015755	-0.006963	0.836818	0.528353	-0.178138	0.000000000	0.000000000	0.000000	
37512	-9.460864	-1.092505	-1.838557	-0.000667	0.003008	-0.002431	0.837817	0.526845	-0.179954	0.000000000	0.000000000	0.000000	
37513	-9.470404	-1.085316	-1.838621	0.004789	0.010132	-0.016093	0.836440	0.528055	-0.177489	0.000000000	0.000000000	0.000000	
37514	-9.475332	-1.128183	-1.852110	-0.009928	-0.001575	-0.015233	0.841227	0.532229	-0.174539	0.000000000	0.000000000	0.000000	
37515	-9.489547	-1.109109	-1.842779	-0.018098	-0.001433	-0.006112	0.836327	0.527167	-0.181516	0.000000000	0.000000000	0.000000	
37516	-9.494555	-1.135194	-1.866202	-0.009796	0.004913	-0.002416	0.839809	0.533601	-0.172747	0.000000000	0.000000000	0.000000	
37517	-9.490052	-1.135005	-1.895033	-0.013361	0.012276	0.003996	0.836165	0.525415	-0.184070	0.000000000	0.000000000	0.000000	
37518	-9.484266	-1.033064	-1.793975	-0.009755	0.002243	0.006679	0.836493	0.529618	-0.176684	0.000000000	0.000000000	0.000000	
37519	-9.468475	-1.104089	-1.886241	-0.015324	0.010304	-0.014293	0.841046	0.532790	-0.175221	0.000000000	0.000000000	0.000000	
37520	-9.463634	-1.142374	-1.875914	-0.011774	0.001121	-0.020706	0.836686	0.527547	-0.178010	0.000000000	0.000000000	0.000000	
37521	-9.494159	-1.061440	-1.829306	-0.013483	0.004892	-0.007005	0.839570	0.530836	-0.176509	0.000000000	0.000000000	0.000000	
37522	-9.485229	-1.123113	-1.890515	0.000150	0.001102	-0.014292	0.833572	0.520219	-0.187561	0.000000000	0.000000000	0.000000	
37523	-9.463850	-1.170876	-1.896929	-0.007913	0.024773	-0.017869	0.839663	0.531437	-0.175030	0.000000000	0.000000000	0.000000	
37524	-9.489295	-1.054357	-1.819893	-0.003419	0.003922	-0.005170	0.840892	0.530366	-0.177639	0.000000000	0.000000000	0.000000	
37525	-9.489888	-1.077799	-1.881793	-0.006081	0.013977	-0.003306	0.837386	0.528484	-0.177971	0.000000000	0.000000000	0.000000	
37526	-9.466091	-1.151868	-1.882899	-0.001663	0.001121	-0.012468	0.840645	0.529807	-0.177115	0.000000000	0.000000000	0.000000	
37527	-9.508280	-1.118877	-1.804038	-0.011561	0.004987	0.005801	0.833085	0.525433	-0.182103	0.000000000	0.000000000	0.000000	
37528	-9.503960	-1.042111	-1.858403	-0.013344	0.012298	0.006719	0.841133	0.532896	-0.171595	0.000000000	0.000000000	0.000000	
37529	-9.418866	-1.146853	-1.936178	-0.019120	0.001148	-0.023470	0.837889	0.526360	-0.181022	0.000000000	0.000000000	0.000000	
37530	-9.455999	-1.169028	-1.822660	0.002051	-0.000665	-0.003337	0.837919	0.527840	-0.178341	0.000000000	0.000000000	0.000000	
37531	-9.492111	-1.065971	-1.865219	0.001217	0.001296	0.009443	0.839609	0.528809	-0.175832	0.000000000	0.000000000	0.000000	
37532	-9.408980	-1.132804	-1.900558	-0.006150	0.004862	-0.002441	0.835514	0.525711	-0.178878	0.000000000	0.000000000	0.000000	
37533	-9.463359	-1.173633	-1.844097	0.004846	0.004797	-0.001483	0.840420	0.530601	-0.174046	0.000000000	0.000000000	0.000000	
37534	-9.479842	-0.970709	-1.836054	-0.000600	0.011220	-0.000597	0.835180	0.522579	-0.186400	0.000000000	0.000000000	0.000000	
37535	-9.418303	-1.140109	-1.876341	-0.004245	0.008540	0.003973	0.838772	0.530002	-0.175883	0.000000000	0.000000000	0.000000	
37536	-9.472571	-1.138026	-1.811150	0.000310	0.014769	-0.008765	0.839073	0.529288	-0.177741	0.000000000	0.000000000	0.000000	
37537	-9.475311	-1.003984	-1.859413	-0.004357	0.008418	-0.012478	0.834375	0.526686	-0.177069	0.000000000	0.000000000	0.000000	
37538	-9.428347	-1.156429	-1.928708	-0.000831	0.000115	-0.022527	0.841171	0.529968	-0.177622	0.000000000	0.000000000	0.000000	
37539	-9.505769	-1.135698	-1.789325	0.001171	0.010191	-0.012422	0.834674	0.522572	-0.183345	0.000000000	0.000000000	0.000000	
37540	-9.522972	-0.984786	-1.854600	-0.002379	0.017621	-0.000558	0.840869	0.531817	-0.171340	0.000000000	0.000000000	0.000000	
37541	-9.433396	-1.175317	-1.957074	-0.007185	-0.005163	-0.007938	0.839291	0.527333	-0.178663	0.000000000	0.000000000	0.000000	
37542	-9.503186	-1.100022	-1.770873	0.006652	-0.008760	0.010339	0.838153	0.529108	-0.176856	0.000000000	0.000000000	0.000000	
37543	-9.509310	-1.036886	-1.920840	-0.006135	0.008537	-0.003328	0.840116	0.527649	-0.176605	0.000000000	0.000000000	0.000000	
37544	-9.400229	-1.194342	-1.980961	0.001120	0.004776	-0.007897	0.834546	0.523263	-0.180940	0.000000000	0.000000000	0.000000	
37545	-9.512703	-1.092850	-1.768539	0.011278	0.003882	0.003088	0.839923	0.529719	-0.175279	0.000000000	0.000000000	0.000000	
37546	-9.466490	-1.015412	-1.936028	-0.015313	0.005854	-0.004285	0.836106	0.523357	-0.182728	0.000000000	0.000000000	0.000000	
37547	-9.352261	-1.223326	-1.951991	0.001173	0.001214	0.003952	0.839386	0.531467	-0.172766	0.000000000	0.000000000	0.000000	
37548	-9.512456	-1.047649	-1.745461	-0.011651	-0.007751	0.006653	0.838137	0.526018	-0.179263	0.000000000	0.000000000	0.000000	
37549	-9.438288	-1.062943	-1.978491	-0.019004	0.003143	-0.005212	0.834455	0.525662	-0.178001	0.000000000	0.000000000	0.000000	
37550	-9.394584	-1.190233	-1.887526	-0.009924	-0.003386	-0.011600	0.841506	0.528063	-0.176659	0.000000000	0.000000000	0.000000	
37551	-9.564969	-0.971047	-1.753760	-0.028047	0.003284	0.003928	0.836573	0.525093	-0.179754	0.000000000	0.000000000	0.000000	
37552	-9.433796	-1.084245	-2.006889	-0.024371	0.010550	0.004856	0.842852	0.534279	-0.166403	0.000000000	0.000000000	0.000000	
37553	-9.430081	-1.192742	-1.855988	-0.011585	0.001346	0.007605	0.837494	0.523974	-0.178357	0.000000000	0.000000000	0.000000	
37554	-9.537075	-1.008793	-1.830006	-0.013504	0.000385	-0.004279	0.837337	0.527220	-0.176496	0.000000000	0.000000000	0.000000	
37555	-9.400300	-1.158458	-1.991280	-0.015333	0.008514	-0.010657	0.839568	0.529771	-0.176507	0.000000000	0.000000000	0.000000	
37556	-9.470446	-1.166501	-1.836984	-0.006100	0.010312	-0.004219	0.837283	0.524991	-0.177299	0.000000000	0.000000000	0.000000	
37557	-9.518165	-1.003935	-1.849456	-0.020713	-0.011115	0.027623	0.843153	0.532297	-0.172684	0.000000000	0.000000000	0.000000	
37558	-9.395631	-1.184669	-2.000388	-0.014322	0.010436	0.002141	0.836532	0.522288	-0.182567	0.000000000	0.000000000	0.000000	
37559	-9.493603	-1.109633	-1.765962	-0.006819	0.013260	0.021355	0.838956	0.529340	-0.172921	0.000000000	0.000000000	0.000000	
37560	-9.513885	-1.003578	-1.902280	-0.018853	0.005138	0.013985	0.839574	0.527634	-0.176368	0.000000000	0.000000000	0.000000	
37561	-9.400030	-1.199268	-1.959271	-0.009708	0.008638	0.009452	0.835727	0.523927	-0.177655	0.000000000	0.000000000	0.000000	
37562	-9.526939	-1.071371	-1.761655	-0.005951	0.006004	0.023159	0.841517	0.530055	-0.176529	0.000000000	0.000000000	0.000000	
37563	-9.485326	-1.008381	-1.909621	-0.020670	0.010561	0.009427	0.836623	0.524658	-0.178946	0.000000000	0.000000000	0.000000	
37564	-9.409421	-1.206523	-1.942252	-0.009844	0.004850	-0.007908	0.841499	0.532604	-0.167953	0.000000000	0.000000000	0.000000	
37565	-9.551021	-0.987532	-1.791931	-0.015191	0.005077	0.011259	0.838979	0.526322	-0.176936	0.000000000	0.000000000	0.000000	
37566	-9.455304	-1.069826	-2.011797	-0.015207	0.013222	0.004883	0.839142	0.525372	-0.176522	0.000000000	0.000000000	0.000000	
37567	-9.427803	-1.142504	-1.871415	-0.013380	-0.002182	0.018535	0.840716	0.526824	-0.175897	0.000000000	0.000000000	0.000000	
37568	-9.532170	-1.008906	-1.815650	-0.025192	-0.004670	0.033124	0.837884	0.524832	-0.176593	0.000000000	0.000000000	0.000000	
37569	-9.436243	-1.117634	-2.010994	-0.017999	0.009564	0.001218	0.843573	0.530333	-0.170376	0.000000000	0.000000000	0.000000	
37570	-9.460796	-1.133165	-1.828141	0.003203	0.004155	0.028638	0.838834	0.520923	-0.181357	0.000000000	0.000000000	0.000000	
37571	-9.527959	-0.970278	-1.878842	-0.014178	0.006141	0.028604	0.839895	0.527872	-0.175679	0.000000000	0.000000000	0.000000	
37572	-9.381255	-1.151312	-1.996383	-0.007962	0.004934	0.003032	0.839749	0.525309	-0.177962	0.000000000	0.000000000	0.000000	
37573	-9.484137	-1.085713	-1.776120	-0.003293	-0.001337	0.019473	0.837887	0.525130	-0.174314	0.000000000	0.000000000	0.000000	
37574	-9.504620	-0.936511	-1.937298	-0.017134	-0.008498	0.015747	0.844178	0.529604	-0.171814	0.000000000	0.000000000	0.000000	
37575	-9.371225	-1.118262	-1.946752	0.003975	-0.001409	0.017627	0.836335	0.523229	-0.176814	0.000000000	0.000000000	0.000000	
37576	-9.531638	-0.932866	-1.764407	-0.015264	-0.000433	0.006653	0.842477	0.528710	-0.170033	0.000000000	0.000000000	0.000000	
37577	-9.452437	-1.003310	-1.965180	-0.031627	0.014280	0.009411	0.840391	0.521086	-0.178720	0.000000000	0.000000000	0.000000	
37578	-9.422840	-1.032780	-1.859274	-0.004239	0.009457	0.004865	0.839693	0.526917	-0.172202	0.000000000	0.000000000	0.000000	
37579	-9.504312	-1.029903	-1.897032	-0.017170	-0.004079	0.002086	0.843124	0.529251	-0.173081	0.000000000	0.000000000	0.000000	
37580	-9.476483	-1.022214	-1.983789	-0.013448	0.008616	-0.000614	0.838799	0.525849	-0.175336	0.000000000	0.000000000	0.000000	
37581	-9.475655	-1.106441	-1.888533	-0.009778	0.003147	0.003957	0.841154	0.526713	-0.173324	0.000000000	0.000000000	0.000000	
37582	-9.546683	-0.960944	-1.840486	-0.018078	0.003131	-0.007024	0.834880	0.518359	-0.184397	0.000000000	0.000000000	0.000000	
37583	-9.456751	-1.111134	-1.907790	-0.021653	0.005952	0.003030	0.842359	0.527994	-0.171916	0.000000000	0.000000000	0.000000	
37584	-9.510706	-1.066288	-1.812275	-0.026067	0.017871	0.010379	0.843110	0.526060	-0.173209	0.000000000	0.000000000	0.000000	
37585	-9.447087	-1.180523	-1.889679	-0.031660	0.010571	0.003957	0.840565	0.525097	-0.176036	0.000000000	0.000000000	0.000000	
37586	-9.470343	-1.054308	-1.834449	-0.032626	-0.000292	0.009375	0.841138	0.526725	-0.173593	0.000000000	0.000000000	0.000000	
37587	-9.399085	-1.099652	-1.865323	-0.028016	0.005112	0.009387	0.835810	0.519834	-0.178446	0.000000000	0.000000000	0.000000	
37588	-9.381013	-1.287652	-1.960049	-0.028102	-0.000389	0.003013	0.842953	0.530974	-0.166926	0.000000000	0.000000000	0.000000	
37589	-9.433644	-0.933265	-1.746031	-0.029881	-0.002149	0.011157	0.840439	0.522953	-0.175771	0.000000000	0.000000000	0.000000	
37590	-9.366918	-1.366353	-1.977774	-0.043668	0.003289	-0.005203	0.839234	0.523341	-0.172757	0.000000000	0.000000000	0.000000	
37591	-9.460219	-1.140764	-1.765615	-0.041011	-0.016690	0.002014	0.842728	0.526465	-0.170416	0.000000000	0.000000000	0.000000	
37592	-9.375464	-1.168812	-1.885720	-0.037223	0.005086	-0.000664	0.836862	0.522223	-0.175037	0.000000000	0.000000000	0.000000	
37593	-9.423540	-1.261572	-1.917032	-0.031778	0.001408	-0.003370	0.843750	0.527774	-0.169689	0.000000000	0.000000000	0.000000	
37594	-9.413216	-1.219188	-1.836404	-0.026125	0.011454	0.008532	0.837983	0.518393	-0.181535	0.000000000	0.000000000	0.000000	
37595	-9.416667	-1.419034	-1.935508	-0.040921	0.003262	-0.006996	0.841105	0.525449	-0.171849	0.000000000	0.000000000	0.000000	
37596	-9.482530	-1.292955	-1.843929	-0.027950	0.012388	0.006748	0.841428	0.526620	-0.171162	0.000000000	0.000000000	0.000000	
37597	-9.456432	-1.056433	-1.877707	-0.040921	0.008696	-0.010701	0.837952	0.524017	-0.173235	0.000000000	0.000000000	0.000000	
37598	-9.411753	-1.275830	-1.931239	-0.040831	0.016898	-0.007895	0.842777	0.527730	-0.171891	0.000000000	0.000000000	0.000000	
37599	-9.489586	-1.099524	-1.847770	-0.031765	0.001436	-0.001559	0.837532	0.519581	-0.175395	0.000000000	0.000000000	0.000000	
37600	-9.406546	-1.168677	-1.892658	-0.040951	0.005032	-0.011618	0.842659	0.530483	-0.164931	0.000000000	0.000000000	0.000000	
37601	-9.494306	-1.085218	-1.843220	-0.031763	0.010439	-0.012487	0.840617	0.524161	-0.172947	0.000000000	0.000000000	0.000000	
37602	-9.435092	-1.137609	-1.885847	-0.039953	0.017747	-0.014308	0.840722	0.525321	-0.169054	0.000000000	0.000000000	0.000000	
37603	-9.484396	-1.281395	-1.788967	-0.059063	0.025157	-0.014261	0.841459	0.524598	-0.170619	0.000000000	0.000000000	0.000000	
37604	-9.518352	-1.448098	-1.835702	-0.057540	-0.000454	-0.031650	0.837037	0.521433	-0.172209	0.000000000	0.000000000	0.000000	
37605	-9.498730	-1.319561	-1.788077	-0.057521	0.010358	-0.041693	0.842846	0.527182	-0.168533	0.000000000	0.000000000	0.000000	
37606	-9.452142	-1.380951	-1.904788	-0.061069	0.025865	-0.040731	0.836764	0.522326	-0.174373	0.000000000	0.000000000	0.000000	
37607	-9.465911	-1.362212	-1.847471	-0.042810	0.015774	-0.034347	0.839880	0.530453	-0.164823	0.000000000	0.000000000	0.000000	
37608	-9.454024	-1.486427	-1.842668	-0.051129	0.014790	-0.048950	0.838570	0.524113	-0.172261	0.000000000	0.000000000	0.000000	
37609	-9.484362	-1.302919	-1.783735	-0.052037	0.017511	-0.050801	0.835069	0.523462	-0.170316	0.000000000	0.000000000	0.000000	
37610	-9.453937	-1.104296	-1.862368	-0.054620	0.030402	-0.036204	0.840727	0.526818	-0.166778	0.000000000	0.000000000	0.000000	
37611	-9.394092	-1.233600	-1.831476	-0.046440	0.026624	-0.041675	0.837520	0.524591	-0.171250	0.000000000	0.000000000	0.000000	
37612	-9.474689	-1.181218	-1.779073	-0.064587	0.032352	-0.027969	0.843281	0.533610	-0.157258	0.000000000	0.000000000	0.000000	
37613	-9.418208	-1.128237	-1.866985	-0.083616	0.058855	-0.029761	0.837579	0.525216	-0.170309	0.000000000	0.000000000	0.000000	
37614	-9.451531	-1.066098	-1.863159	-0.079244	0.036972	-0.033488	0.838197	0.526713	-0.164912	0.000000000	0.000000000	0.000000	
37615	-9.445394	-1.051018	-1.973874	-0.082794	0.054298	-0.034349	0.842887	0.528421	-0.163438	0.000000000	0.000000000	0.000000	
37616	-9.490182	-0.998750	-1.919371	-0.075396	0.045349	-0.011537	0.837444	0.524346	-0.165755	0.000000000	0.000000000	0.000000	
37617	-9.533475	-0.941041	-1.960955	-0.065212	0.062586	-0.011458	0.844178	0.529940	-0.158404	0.000000000	0.000000000	0.000000	
37618	-9.524739	-0.988236	-2.044046	-0.071554	0.055544	0.008606	0.834814	0.522643	-0.169927	0.000000000	0.000000000	0.000000	
37619	-9.533587	-1.069949	-1.963153	-0.062417	0.058119	0.000432	0.839778	0.529560	-0.159731	0.000000000	0.000000000	0.000000	
37620	-9.528572	-1.117919	-1.933439	-0.066111	0.047275	0.006790	0.840884	0.528875	-0.162079	0.000000000	0.000000000	0.000000	
37621	-9.523711	-1.032005	-1.930414	-0.080001	0.033650	-0.002434	0.838643	0.525797	-0.162202	0.000000000	0.000000000	0.000000	
37622	-9.634613	-0.851683	-2.067466	-0.099151	0.039388	0.004860	0.843833	0.530785	-0.159499	0.000000000	0.000000000	0.000000	
37623	-9.701901	-0.970573	-2.110086	-0.079065	0.038326	0.000373	0.836822	0.523521	-0.162303	0.000000000	0.000000000	0.000000	
37624	-9.715118	-1.425821	-2.213555	-0.036980	0.034443	0.005101	0.843333	0.534609	-0.149747	0.000000000	0.000000000	0.000000	
37625	-9.771747	-1.421360	-2.145993	-0.018550	0.052485	0.002473	0.841482	0.525551	-0.159087	0.000000000	0.000000000	0.000000	
37626	-9.705104	-1.349157	-1.912896	0.041761	0.049169	-0.005708	0.839780	0.525825	-0.159589	0.000000000	0.000000000	0.000000	
37627	-9.689791	-1.404887	-1.801542	0.081894	0.058575	-0.037568	0.843238	0.527107	-0.157782	0.000000000	0.000000000	0.000000	
37628	-9.562880	-1.485012	-2.002521	0.125837	0.067374	-0.034754	0.836983	0.524475	-0.159747	0.000000000	0.000000000	0.000000	
37629	-9.408432	-1.398968	-2.077530	0.175105	0.065071	-0.044805	0.844475	0.532264	-0.153699	0.000000000	0.000000000	0.000000	
37630	-9.379388	-1.289475	-2.041596	0.193284	0.065681	-0.062162	0.837640	0.522574	-0.164801	0.000000000	0.000000000	0.000000	
37631	-9.436904	-0.894383	-1.842753	0.174010	0.045900	-0.049551	0.838568	0.528451	-0.158994	0.000000000	0.000000000	0.000000	
37632	-9.333932	-1.304026	-2.027290	0.134717	0.061521	-0.064105	0.838568	0.526650	-0.163415	0.000000000	0.000000000	0.000000	
37633	-9.327334	-1.314966	-1.830398	0.121988	0.056209	-0.052274	0.839357	0.528758	-0.159754	0.000000000	0.000000000	0.000000	
37634	-9.331135	-1.543214	-1.964913	0.099206	0.072715	-0.059499	0.843180	0.531715	-0.156589	0.000000000	0.000000000	0.000000	
37635	-9.275943	-1.443277	-1.938603	0.092065	0.068485	-0.025780	0.838049	0.525285	-0.162772	0.000000000	0.000000000	0.000000	
37636	-9.276055	-1.402584	-1.953817	0.071195	0.075166	-0.007533	0.840091	0.531873	-0.154756	0.000000000	0.000000000	0.000000	
37637	-9.204768	-1.519612	-1.976049	0.061976	0.066104	-0.008490	0.837857	0.523721	-0.163584	0.000000000	0.000000000	0.000000	
37638	-9.184790	-1.353122	-1.893205	0.033698	0.064576	0.004199	0.839739	0.528322	-0.155842	0.000000000	0.000000000	0.000000	
37639	-9.123366	-1.314616	-1.961674	0.008913	0.061048	-0.003187	0.841541	0.528878	-0.156007	0.000000000	0.000000000	0.000000	
37640	-9.094571	-1.166717	-1.955302	-0.011336	0.048426	-0.006047	0.836195	0.524567	-0.158989	0.000000000	0.000000000	0.000000	
37641	-9.120461	-1.047474	-1.926299	-0.024834	0.074925	-0.004166	0.840124	0.527549	-0.156354	0.000000000	0.000000000	0.000000	
37642	-9.186466	-1.480855	-2.063353	-0.005843	0.063732	-0.025968	0.835632	0.518430	-0.167859	0.000000000	0.000000000	0.000000	
37643	-9.329248	-1.557178	-2.017428	-0.027829	0.061149	-0.032336	0.840418	0.529441	-0.153927	0.000000000	0.000000000	0.000000	
37644	-9.415510	-1.418118	-2.067487	-0.007871	0.057263	-0.049672	0.839686	0.526359	-0.156645	0.000000000	0.000000000	0.000000	
37645	-9.429723	-1.652251	-2.038656	-0.002449	0.046294	-0.050557	0.836856	0.525699	-0.157344	0.000000000	0.000000000	0.000000	
37646	-9.522976	-1.453577	-2.075464	-0.022529	0.045664	-0.040558	0.839408	0.527156	-0.156663	0.000000000	0.000000000	0.000000	
37647	-9.339700	-1.499141	-2.119273	-0.009865	0.040845	-0.054307	0.834394	0.520909	-0.160962	0.000000000	0.000000000	0.000000	
37648	-9.468351	-1.412932	-2.105533	-0.013446	0.048220	-0.051522	0.839539	0.532332	-0.150230	0.000000000	0.000000000	0.000000	
37649	-9.387112	-1.176760	-2.110978	0.008495	0.051666	-0.052473	0.838168	0.524168	-0.158605	0.000000000	0.000000000	0.000000	
37650	-9.504121	-1.381793	-2.105860	-0.009913	0.032744	-0.051567	0.836949	0.526433	-0.155865	0.000000000	0.000000000	0.000000	
37651	-9.539746	-1.073671	-2.111772	-0.029060	0.049214	-0.058902	0.837925	0.528608	-0.153667	0.000000000	0.000000000	0.000000	
37652	-9.514384	-1.049193	-2.208443	-0.021797	0.032934	-0.043439	0.832779	0.524790	-0.155700	0.000000000	0.000000000	0.000000	
37653	-9.608138	-1.124847	-2.278102	-0.037342	0.030400	-0.039768	0.838267	0.530966	-0.152714	0.000000000	0.000000000	0.000000	
37654	-9.559599	-1.001381	-2.199430	-0.010712	0.033921	-0.026976	0.834400	0.521138	-0.163108	0.000000000	0.000000000	0.000000	
37655	-9.597342	-1.078040	-2.147185	-0.021728	0.024019	-0.024258	0.836037	0.529614	-0.152706	0.000000000	0.000000000	0.000000	
37656	-9.515802	-1.336561	-2.082682	0.000913	0.008166	-0.044339	0.836503	0.528750	-0.154152	0.000000000	0.000000000	0.000000	
37657	-9.543222	-1.364271	-2.206647	-0.006557	0.000880	-0.056231	0.832588	0.528192	-0.154378	0.000000000	0.000000000	0.000000	
37658	-9.435691	-1.032658	-2.214237	-0.024870	0.009095	-0.064564	0.836152	0.529766	-0.153102	0.000000000	0.000000000	0.000000	
37659	-9.437066	-1.270498	-2.343781	-0.032304	0.009920	-0.083692	0.830464	0.525063	-0.159321	0.000000000	0.000000000	0.000000	
37660	-9.409612	-1.175930	-2.221165	-0.030516	0.000796	-0.081015	0.834357	0.533574	-0.146241	0.000000000	0.000000000	0.000000	
37661	-9.449959	-0.944271	-2.215899	-0.047968	0.003560	-0.093857	0.833796	0.528502	-0.155113	0.000000000	0.000000000	0.000000	
37662	-9.378290	-1.188188	-2.187594	-0.023266	-0.003872	-0.086508	0.834190	0.530324	-0.151071	0.000000000	0.000000000	0.000000	
37663	-9.449116	-1.341434	-2.095141	-0.028971	-0.024869	-0.100230	0.833044	0.530169	-0.153819	0.000000000	0.000000000	0.000000	
37664	-9.333967	-1.370884	-2.025942	-0.038029	-0.017562	-0.097512	0.828522	0.527075	-0.157024	0.000000000	0.000000000	0.000000	
37665	-9.401044	-1.384828	-2.053886	-0.046375	-0.020325	-0.112119	0.832361	0.533255	-0.151452	0.000000000	0.000000000	0.000000	
37666	-9.244279	-1.473117	-2.123000	-0.033576	-0.021349	-0.109397	0.829731	0.528184	-0.157762	0.000000000	0.000000000	0.000000	
37667	-9.341129	-1.294422	-2.032222	-0.040779	-0.013036	-0.102995	0.830789	0.536636	-0.149941	0.000000000	0.000000000	0.000000	
37668	-9.240141	-1.830963	-2.163803	-0.023476	-0.014198	-0.115666	0.829810	0.530662	-0.156555	0.000000000	0.000000000	0.000000	
37669	-9.400423	-1.179864	-2.002843	-0.048246	-0.034765	-0.099437	0.827343	0.529811	-0.155892	0.000000000	0.000000000	0.000000	
37670	-9.154888	-1.675453	-2.244427	-0.019856	-0.020540	-0.108443	0.830953	0.534019	-0.153949	0.000000000	0.000000000	0.000000	
37671	-9.347839	-1.378344	-1.977693	-0.036973	-0.020100	-0.073770	0.826409	0.531107	-0.155278	0.000000000	0.000000000	0.000000	
37672	-9.275226	-1.301095	-2.128607	-0.045287	-0.006590	-0.097520	0.829355	0.542454	-0.146282	0.000000000	0.000000000	0.000000	
37673	-9.341590	-1.363349	-2.076411	-0.030641	-0.021090	-0.080161	0.827249	0.532045	-0.155232	0.000000000	0.000000000	0.000000	
37674	-9.415944	-1.307910	-2.122486	-0.065349	-0.010831	-0.084730	0.825858	0.534599	-0.153038	0.000000000	0.000000000	0.000000	
37675	-9.333912	-1.222824	-2.031327	-0.044343	-0.016477	-0.082941	0.826740	0.535640	-0.152319	0.000000000	0.000000000	0.000000	
37676	-9.421050	-1.778226	-2.122558	-0.052578	-0.017329	-0.088275	0.825239	0.533970	-0.154011	0.000000000	0.000000000	0.000000	
37677	-9.360515	-1.537783	-2.036971	-0.060179	-0.035544	-0.100373	0.828596	0.540877	-0.149839	0.000000000	0.000000000	0.000000	
37678	-9.315931	-1.594676	-2.112971	-0.063708	-0.012832	-0.106691	0.823580	0.531761	-0.158559	0.000000000	0.000000000	0.000000	
37679	-9.311959	-1.756523	-2.186514	-0.055609	-0.029252	-0.106700	0.824665	0.540864	-0.150335	0.000000000	0.000000000	0.000000	
37680	-9.333844	-1.318412	-2.008031	-0.043667	-0.017586	-0.112216	0.826090	0.538152	-0.151990	0.000000000	0.000000000	0.000000	
37681	-9.285411	-1.730546	-2.156072	-0.041924	-0.028514	-0.113085	0.822120	0.536799	-0.155302	0.000000000	0.000000000	0.000000	
37682	-9.443707	-1.415964	-2.012336	-0.060262	-0.034725	-0.114068	0.824270	0.542010	-0.152238	0.000000000	0.000000000	0.000000	
37683	-9.334762	-1.664089	-2.080225	-0.058345	-0.033756	-0.102169	0.820442	0.537054	-0.155399	0.000000000	0.000000000	0.000000	
37684	-9.493763	-1.372865	-2.010385	-0.063712	-0.024500	-0.093939	0.823495	0.547629	-0.146930	0.000000000	0.000000000	0.000000	
37685	-9.296796	-1.886191	-2.085663	-0.025291	-0.017654	-0.103849	0.821616	0.539957	-0.154533	0.000000000	0.000000000	0.000000	
37686	-9.529427	-1.439743	-1.991942	-0.059978	-0.016332	-0.093876	0.820564	0.539636	-0.153520	0.000000000	0.000000000	0.000000	
37687	-9.282280	-1.628398	-2.083785	-0.027120	-0.024810	-0.091158	0.821167	0.540676	-0.152817	0.000000000	0.000000000	0.000000	
37688	-9.482873	-1.651598	-2.100822	-0.047129	-0.017252	-0.084693	0.818657	0.539988	-0.152827	0.000000000	0.000000000	0.000000	
37689	-9.377228	-1.475622	-2.042882	-0.016168	-0.037485	-0.078404	0.820415	0.546378	-0.149386	0.000000000	0.000000000	0.000000	
37690	-9.468354	-1.601627	-2.082759	-0.017975	-0.036513	-0.077429	0.814887	0.537325	-0.159612	0.000000000	0.000000000	0.000000	
37691	-9.428331	-1.309307	-1.906656	-0.021399	-0.017334	-0.065578	0.816954	0.543097	-0.151188	0.000000000	0.000000000	0.000000	
37692	-9.378365	-1.770971	-2.142479	-0.026969	-0.010169	-0.086472	0.818517	0.541421	-0.155118	0.000000000	0.000000000	0.000000	
37693	-9.510394	-1.123839	-1.765757	-0.026972	-0.030027	-0.065648	0.816268	0.543049	-0.153240	0.000000000	0.000000000	0.000000	
37694	-9.378904	-1.947332	-2.186902	-0.039971	-0.020247	-0.106576	0.818351	0.548308	-0.151253	0.000000000	0.000000000	0.000000	
37695	-9.407206	-1.459595	-1.932593	-0.023600	-0.028632	-0.111254	0.815029	0.540726	-0.155184	0.000000000	0.000000000	0.000000	
37696	-9.292303	-1.950490	-2.110795	-0.029112	-0.021443	-0.124858	0.815251	0.547139	-0.149552	0.000000000	0.000000000	0.000000	
37697	-9.396083	-1.719394	-1.999423	-0.043928	-0.043175	-0.127717	0.812895	0.540571	-0.158124	0.000000000	0.000000000	0.000000	
37698	-9.230119	-1.953163	-2.094471	0.003604	-0.035480	-0.139491	0.812837	0.546582	-0.152508	0.000000000	0.000000000	0.000000	
37699	-9.371299	-1.529056	-1.914701	-0.009169	-0.041634	-0.127712	0.814962	0.547910	-0.151985	0.000000000	0.000000000	0.000000	
37700	-9.257628	-2.023803	-2.224767	-0.005459	-0.012742	-0.152181	0.811434	0.543109	-0.152581	0.000000000	0.000000000	0.000000	
37701	-9.389526	-1.295553	-1.840084	-0.009175	-0.041640	-0.127761	0.811965	0.546467	-0.153094	0.000000000	0.000000000	0.000000	
37702	-9.326650	-1.708426	-2.230544	-0.010172	-0.038028	-0.138630	0.806332	0.538322	-0.162792	0.000000000	0.000000000	0.000000	
37703	-9.390196	-1.295050	-1.912062	0.014723	-0.036212	-0.113093	0.810095	0.548661	-0.151866	0.000000000	0.000000000	0.000000	
37704	-9.447099	-1.503585	-2.113704	-0.009076	-0.028784	-0.123078	0.810122	0.548307	-0.155888	0.000000000	0.000000000	0.000000	
37705	-9.367013	-1.430766	-1.974298	0.007538	-0.026981	-0.103915	0.807217	0.546266	-0.155515	0.000000000	0.000000000	0.000000	
37706	-9.477814	-1.613608	-2.072841	-0.030880	-0.022163	-0.112093	0.808827	0.550225	-0.154357	0.000000000	0.000000000	0.000000	
37707	-9.352721	-1.516782	-1.970285	-0.008021	-0.026006	-0.108486	0.803033	0.543797	-0.157764	0.000000000	0.000000000	0.000000	
37708	-9.487607	-1.450960	-2.112024	-0.034638	-0.023124	-0.123095	0.807171	0.554936	-0.149769	0.000000000	0.000000000	0.000000	
37709	-9.342012	-1.413183	-2.109214	-0.005447	-0.036072	-0.116764	0.805817	0.547158	-0.157878	0.000000000	0.000000000	0.000000	
37710	-9.541876	-1.580256	-2.036987	-0.015440	-0.034108	-0.114837	0.805291	0.550899	-0.155234	0.000000000	0.000000000	0.000000	
37711	-9.368693	-1.694654	-2.134503	-0.016570	-0.041611	-0.136816	0.804396	0.550567	-0.153944	0.000000000	0.000000000	0.000000	
37712	-9.433697	-1.335123	-1.968467	-0.003603	-0.030695	-0.124948	0.800712	0.545777	-0.154817	0.000000000	0.000000000	0.000000	
37713	-9.396755	-1.465683	-2.090900	-0.022946	-0.033413	-0.141406	0.803405	0.553237	-0.154276	0.000000000	0.000000000	0.000000	
37714	-9.406758	-1.618191	-2.128527	-0.013881	-0.043483	-0.142302	0.799938	0.544290	-0.160492	0.000000000	0.000000000	0.000000	
37715	-9.533453	-1.423570	-1.913063	-0.033954	-0.042419	-0.141419	0.800829	0.552996	-0.155363	0.000000000	0.000000000	0.000000	
37716	-9.396808	-1.737960	-2.075814	-0.033220	-0.050772	-0.157858	0.800469	0.553485	-0.154446	0.000000000	0.000000000	0.000000	
37717	-9.491818	-1.747571	-2.029237	-0.031530	-0.063566	-0.166085	0.797326	0.553246	-0.155701	0.000000000	0.000000000	0.000000	
37718	-9.434524	-1.635483	-2.034378	-0.033434	-0.057353	-0.183463	0.799120	0.554741	-0.156002	0.000000000	0.000000000	0.000000	
37719	-9.396138	-1.652469	-2.010368	-0.018731	-0.051089	-0.180688	0.795785	0.549436	-0.160208	0.000000000	0.000000000	0.000000	
37720	-9.423045	-1.608298	-1.828699	-0.022285	-0.054599	-0.165184	0.798310	0.559051	-0.151230	0.000000000	0.000000000	0.000000	
37721	-9.329755	-1.855378	-2.040424	-0.027959	-0.051169	-0.195289	0.796520	0.554650	-0.157494	0.000000000	0.000000000	0.000000	
37722	-9.309945	-1.592609	-1.726805	-0.026136	-0.063014	-0.187181	0.793567	0.558278	-0.155795	0.000000000	0.000000000	0.000000	
37723	-9.396463	-1.558460	-1.796339	-0.066267	-0.049020	-0.186256	0.794386	0.556430	-0.156012	0.000000000	0.000000000	0.000000	
37724	-9.115010	-1.801040	-2.043327	-0.051629	-0.029316	-0.203554	0.792433	0.555314	-0.158269	0.000000000	0.000000000	0.000000	
37725	-9.211916	-1.612144	-1.703245	-0.044329	-0.040301	-0.200856	0.793341	0.560773	-0.155009	0.000000000	0.000000000	0.000000	
37726	-9.236922	-1.627938	-1.825071	-0.101004	-0.029901	-0.207284	0.787868	0.556416	-0.160011	0.000000000	0.000000000	0.000000	
37727	-9.064209	-1.916361	-1.959860	-0.075665	-0.036767	-0.239224	0.788663	0.566024	-0.154218	0.000000000	0.000000000	0.000000	
37728	-9.240245	-1.851165	-1.652605	-0.113803	-0.021821	-0.225487	0.786671	0.561867	-0.157007	0.000000000	0.000000000	0.000000	
37729	-9.137519	-1.873650	-1.892928	-0.124915	-0.014643	-0.248337	0.783545	0.561617	-0.157992	0.000000000	0.000000000	0.000000	
37730	-9.063491	-1.995728	-1.876696	-0.115930	-0.026671	-0.260235	0.782874	0.567228	-0.155495	0.000000000	0.000000000	0.000000	
37731	-9.207595	-1.831583	-1.734844	-0.154146	-0.007242	-0.257474	0.781828	0.565036	-0.154344	0.000000000	0.000000000	0.000000	
37732	-9.124290	-1.896761	-2.007732	-0.141408	-0.003720	-0.263846	0.785320	0.574231	-0.147723	0.000000000	0.000000000	0.000000	
37733	-9.138290	-2.066558	-1.961006	-0.139558	-0.010948	-0.255606	0.780772	0.567652	-0.153472	0.000000000	0.000000000	0.000000	
37734	-9.203076	-1.802741	-1.764253	-0.176171	-0.008073	-0.267564	0.777860	0.570851	-0.151099	0.000000000	0.000000000	0.000000	
37735	-9.156580	-1.653853	-1.906796	-0.205469	-0.003333	-0.272208	0.776730	0.574053	-0.151440	0.000000000	0.000000000	0.000000	
37736	-9.101753	-1.696966	-1.908787	-0.205454	0.002065	-0.276764	0.775980	0.571585	-0.150002	0.000000000	0.000000000	0.000000	
37737	-9.202393	-1.693372	-1.699289	-0.230969	-0.004904	-0.261271	0.776078	0.579152	-0.146391	0.000000000	0.000000000	0.000000	
37738	-9.151133	-1.730813	-1.828518	-0.235480	0.013253	-0.270353	0.771703	0.572683	-0.151593	0.000000000	0.000000000	0.000000	
37739	-9.133759	-2.065787	-1.730744	-0.209756	0.014028	-0.260194	0.770893	0.580361	-0.144682	0.000000000	0.000000000	0.000000	
37740	-9.219986	-2.258183	-1.495824	-0.230542	0.035092	-0.258251	0.771854	0.579980	-0.144894	0.000000000	0.000000000	0.000000	
37741	-8.996308	-2.475728	-1.543703	-0.227648	0.061296	-0.267312	0.768237	0.580744	-0.144837	0.000000000	0.000000000	0.000000	
37742	-9.011377	-2.646508	-1.355400	-0.193677	0.062922	-0.256252	0.766381	0.585095	-0.141198	0.000000000	0.000000000	0.000000	
37743	-8.908631	-2.771120	-1.329762	-0.187858	0.089363	-0.238805	0.765635	0.581390	-0.141904	0.000000000	0.000000000	0.000000	
37744	-8.753243	-2.927648	-1.541436	-0.184261	0.107290	-0.265234	0.765610	0.591145	-0.133611	0.000000000	0.000000000	0.000000	
37745	-8.755010	-3.060089	-1.721085	-0.173192	0.120009	-0.262399	0.762612	0.585268	-0.136856	0.000000000	0.000000000	0.000000	
37746	-8.783447	-2.477305	-1.744590	-0.179222	0.147653	-0.229560	0.760190	0.586519	-0.135524	0.000000000	0.000000000	0.000000	
37747	-8.770963	-3.104810	-2.149491	-0.145098	0.176705	-0.216473	0.760292	0.587381	-0.133910	0.000000000	0.000000000	0.000000	
37748	-9.059833	-2.962946	-2.178709	-0.082571	0.189445	-0.176996	0.757398	0.587466	-0.133407	0.000000000	0.000000000	0.000000	
37749	-9.163362	-2.914789	-2.538676	-0.011186	0.187429	-0.154036	0.758089	0.593313	-0.126942	0.000000000	0.000000000	0.000000	
37750	-9.469327	-2.599991	-2.367311	0.051332	0.197386	-0.116432	0.758215	0.584285	-0.133621	0.000000000	0.000000000	0.000000	
37751	-9.844381	-2.297626	-2.439824	0.043996	0.184108	-0.099079	0.756347	0.589879	-0.127974	0.000000000	0.000000000	0.000000	
37752	-9.815287	-2.468256	-2.633357	0.110498	0.162655	-0.108154	0.758006	0.588569	-0.128143	0.000000000	0.000000000	0.000000	
37753	-10.108219	-2.465459	-2.575767	0.126027	0.147285	-0.095300	0.755780	0.588315	-0.125857	0.000000000	0.000000000	0.000000	
37754	-10.048309	-2.083623	-2.576772	0.165113	0.134124	-0.110008	0.755888	0.592774	-0.124251	0.000000000	0.000000000	0.000000	
37755	-10.308113	-1.832284	-2.567657	0.183907	0.110153	-0.142909	0.753869	0.587302	-0.127441	0.000000000	0.000000000	0.000000	
37756	-10.194145	-1.469095	-2.655109	0.203807	0.107975	-0.165840	0.753912	0.591974	-0.124632	0.000000000	0.000000000	0.000000	
37757	-10.247942	-1.410639	-2.799782	0.178619	0.088684	-0.215254	0.753057	0.584710	-0.129226	0.000000000	0.000000000	0.000000	
37758	-10.300128	-1.520604	-2.758740	0.201950	0.052801	-0.243612	0.751716	0.590731	-0.124086	0.000000000	0.000000000	0.000000	
37759	-10.280209	-1.208357	-2.693229	0.251860	0.035731	-0.280206	0.749958	0.593444	-0.125535	0.000000000	0.000000000	0.000000	
37760	-10.195309	-1.430001	-2.783041	0.273302	0.009687	-0.326816	0.748046	0.591632	-0.127117	0.000000000	0.000000000	0.000000	
37761	-10.223273	-1.365324	-2.460228	0.291105	-0.029035	-0.364377	0.747325	0.594176	-0.127567	0.000000000	0.000000000	0.000000	
37762	-10.182085	-1.356352	-2.393580	0.283212	-0.061297	-0.416574	0.743491	0.588224	-0.135287	0.000000000	0.000000000	0.000000	
37763	-10.224525	-1.504715	-2.327855	0.281866	-0.087107	-0.456800	0.743062	0.600566	-0.131315	0.000000000	0.000000000	0.000000	
37764	-10.367355	-1.588169	-2.286584	0.263460	-0.090719	-0.474123	0.739589	0.600627	-0.133394	0.000000000	0.000000000	0.000000	
37765	-10.224275	-2.140306	-2.252666	0.278937	-0.095562	-0.486823	0.737879	0.601173	-0.134031	0.000000000	0.000000000	0.000000	
37766	-10.208854	-2.418269	-2.112841	0.291823	-0.112754	-0.460323	0.734395	0.604710	-0.136387	0.000000000	0.000000000	0.000000	
37767	-10.145414	-2.199733	-1.978632	0.324860	-0.106591	-0.450279	0.732264	0.601085	-0.139185	0.000000000	0.000000000	0.000000	
37768	-10.106847	-2.246122	-2.189144	0.334142	-0.117186	-0.409210	0.730688	0.611173	-0.135677	0.000000000	0.000000000	0.000000	
37769	-10.044898	-2.496444	-1.923114	0.334182	-0.119119	-0.411921	0.730581	0.605045	-0.141705	0.000000000	0.000000000	0.000000	
37770	-9.821084	-2.623320	-1.963226	0.326913	-0.107373	-0.418331	0.727691	0.609095	-0.143491	0.000000000	0.000000000	0.000000	
37771	-9.629113	-2.550621	-1.851150	0.314021	-0.124606	-0.412105	0.724095	0.612912	-0.143171	0.000000000	0.000000000	0.000000	
37772	-9.400846	-2.732211	-1.921385	0.295721	-0.138952	-0.394870	0.721723	0.612592	-0.145454	0.000000000	0.000000000	0.000000	
37773	-9.242415	-3.042118	-2.050821	0.277420	-0.140666	-0.393972	0.720449	0.618997	-0.145944	0.000000000	0.000000000	0.000000	
37774	-9.000960	-3.167356	-1.990351	0.290488	-0.127026	-0.371129	0.717838	0.609644	-0.151843	0.000000000	0.000000000	0.000000	
37775	-8.829378	-3.406551	-1.994171	0.325425	-0.119011	-0.353700	0.718407	0.620077	-0.149687	0.000000000	0.000000000	0.000000	
37776	-8.800207	-3.309098	-1.943600	0.349416	-0.102714	-0.339940	0.715597	0.618435	-0.152260	0.000000000	0.000000000	0.000000	
37777	-8.590769	-3.340339	-1.997514	0.386029	-0.117373	-0.313519	0.713682	0.620093	-0.153984	0.000000000	0.000000000	0.000000	
37778	-8.419698	-3.316389	-2.076209	0.395398	-0.098250	-0.297976	0.712020	0.621770	-0.156096	0.000000000	0.000000000	0.000000	
37779	-8.461760	-3.168834	-1.992462	0.422683	-0.113953	-0.302577	0.711049	0.617190	-0.158154	0.000000000	0.000000000	0.000000	
37780	-8.477312	-3.313578	-2.114167	0.405978	-0.126717	-0.323611	0.710259	0.627287	-0.157686	0.000000000	0.000000000	0.000000	
37781	-8.462528	-2.757394	-2.106312	0.385638	-0.128600	-0.348441	0.707763	0.622653	-0.161844	0.000000000	0.000000000	0.000000	
37782	-8.482793	-2.789899	-2.230240	0.336023	-0.132996	-0.376827	0.705998	0.626038	-0.163429	0.000000000	0.000000000	0.000000	
37783	-8.555409	-3.129907	-2.059634	0.328616	-0.130476	-0.405035	0.704032	0.626032	-0.163677	0.000000000	0.000000000	0.000000	
37784	-8.761641	-3.283221	-1.903662	0.321174	-0.137825	-0.424143	0.701509	0.625152	-0.168382	0.000000000	0.000000000	0.000000	
37785	-8.897644	-3.408840	-1.638480	0.344695	-0.161842	-0.445122	0.698129	0.631416	-0.169128	0.000000000	0.000000000	0.000000	
37786	-9.155098	-3.109102	-1.380851	0.333575	-0.166464	-0.467968	0.693995	0.630079	-0.172852	0.000000000	0.000000000	0.000000	
37787	-9.290874	-2.831799	-1.378101	0.302193	-0.169249	-0.507312	0.691735	0.637283	-0.173535	0.000000000	0.000000000	0.000000	
37788	-9.277307	-2.603744	-1.219673	0.289097	-0.180400	-0.541220	0.689852	0.634483	-0.176857	0.000000000	0.000000000	0.000000	
37789	-9.419208	-2.736274	-1.330964	0.243195	-0.171231	-0.580444	0.686902	0.636741	-0.177301	0.000000000	0.000000000	0.000000	
37790	-9.418708	-2.378339	-1.304597	0.240870	-0.194343	-0.625361	0.683052	0.641972	-0.178877	0.000000000	0.000000000	0.000000	
37791	-9.465611	-2.267152	-1.481579	0.211434	-0.189749	-0.651881	0.679599	0.644153	-0.180692	0.000000000	0.000000000	0.000000	
37792	-9.539525	-2.814608	-1.690639	0.204408	-0.212987	-0.723049	0.675044	0.655152	-0.180309	0.000000000	0.000000000	0.000000	
37793	-9.681699	-2.709845	-1.593190	0.192362	-0.208602	-0.755903	0.672449	0.649555	-0.183800	0.000000000	0.000000000	0.000000	
37794	-9.673093	-2.962374	-1.674540	0.225708	-0.232894	-0.803368	0.667695	0.654727	-0.184221	0.000000000	0.000000000	0.000000	
37795	-9.628223	-3.244022	-1.702827	0.263034	-0.229825	-0.836125	0.661638	0.660154	-0.187669	0.000000000	0.000000000	0.000000	
37796	-9.719283	-2.727508	-1.784448	0.266076	-0.261132	-0.884720	0.657855	0.662369	-0.190307	0.000000000	0.000000000	0.000000	
37797	-9.783707	-2.477113	-2.060054	0.267239	-0.285243	-0.947850	0.650179	0.671113	-0.190771	0.000000000	0.000000000	0.000000	
37798	-10.077935	-1.905428	-2.440966	0.215223	-0.304492	-1.032954	0.645316	0.669091	-0.197218	0.000000000	0.000000000	0.000000	
37799	-10.206152	-1.875089	-2.632428	0.254915	-0.315268	-1.099556	0.638921	0.681828	-0.197349	0.000000000	0.000000000	0.000000	
37800	-10.503858	-2.221032	-2.548575	0.289261	-0.323251	-1.162359	0.630335	0.684048	-0.201070	0.000000000	0.000000000	0.000000	
37801	-10.712054	-2.766408	-2.317507	0.415273	-0.295726	-1.241319	0.624123	0.688719	-0.202513	0.000000000	0.000000000	0.000000	
37802	-11.008610	-2.073513	-1.933124	0.502150	-0.260346	-1.288608	0.616038	0.696852	-0.207291	0.000000000	0.000000000	0.000000	
37803	-11.274637	-2.185339	-1.539972	0.665752	-0.236559	-1.346602	0.609762	0.699667	-0.211953	0.000000000	0.000000000	0.000000	
37804	-11.596111	-1.513081	-1.267722	0.724267	-0.202733	-1.391186	0.601466	0.713251	-0.213537	0.000000000	0.000000000	0.000000	
37805	-11.789894	-0.957967	-1.366050	0.800937	-0.165490	-1.450355	0.594160	0.711527	-0.221199	0.000000000	0.000000000	0.000000	
37806	-12.135687	-0.291281	-1.654878	0.863824	-0.149677	-1.486763	0.584312	0.719309	-0.227420	0.000000000	0.000000000	0.000000	
37807	-12.752590	-0.430718	-2.299434	0.938333	-0.151258	-1.545760	0.576066	0.724255	-0.232469	0.000000000	0.000000000	0.000000	
37808	-13.562284	-0.008017	-2.680200	0.966541	-0.143046	-1.565591	0.567089	0.730819	-0.238100	0.000000000	0.000000000	0.000000	
37809	-14.206846	-0.599576	-3.185856	1.063392	-0.148878	-1.567836	0.557237	0.741404	-0.244462	0.000000000	0.000000000	0.000000	
37810	-14.523213	-0.762458	-3.326255	1.194662	-0.185324	-1.586792	0.548545	0.738429	-0.254214	0.000000000	0.000000000	0.000000	
37811	-14.536392	-0.759098	-3.460562	1.363921	-0.253278	-1.627865	0.537372	0.748082	-0.263869	0.000000000	0.000000000	0.000000	
37812	-14.031760	-0.312311	-3.365858	1.461507	-0.372696	-1.656733	0.528031	0.752769	-0.275285	0.000000000	0.000000000	0.000000	
37813	-13.150748	-0.195161	-3.054155	1.476504	-0.474181	-1.762428	0.517226	0.759562	-0.283437	0.000000000	0.000000000	0.000000	
37814	-12.915121	-1.048735	-2.283207	1.339394	-0.610250	-1.906386	0.504611	0.767904	-0.293844	0.000000000	0.000000000	0.000000	
37815	-12.939322	-2.617208	-1.944294	1.017255	-0.681887	-2.034612	0.491090	0.770819	-0.305230	0.000000000	0.000000000	0.000000	
37816	-13.067933	-3.803018	-1.317125	0.649452	-0.768472	-2.139273	0.474246	0.785895	-0.312140	0.000000000	0.000000000	0.000000	
37817	-12.427011	-4.801432	-1.849392	0.308555	-0.785075	-2.226594	0.459841	0.788239	-0.319820	0.000000000	0.000000000	0.000000	
37818	-11.360699	-5.037752	-2.621324	0.078116	-0.773506	-2.213518	0.444749	0.803742	-0.320997	0.000000000	0.000000000	0.000000	
37819	-10.243791	-5.224391	-2.319877	0.097302	-0.806263	-2.035879	0.431735	0.814569	-0.324457	0.000000000	0.000000000	0.000000	
37820	-8.980479	-5.911929	-2.143915	0.206734	-0.789378	-1.823155	0.417931	0.820655	-0.329293	0.000000000	0.000000000	0.000000	
37821	-7.867376	-6.356686	-2.487394	0.196063	-0.655283	-1.643073	0.404614	0.829196	-0.335315	0.000000000	0.000000000	0.000000	
37822	-6.927597	-6.366245	-2.516705	0.167133	-0.494959	-1.495844	0.393789	0.830335	-0.339163	0.000000000	0.000000000	0.000000	
37823	-6.195830	-6.223810	-2.348203	0.123565	-0.323751	-1.368654	0.382810	0.845823	-0.339162	0.000000000	0.000000000	0.000000	
37824	-5.604384	-6.559671	-2.351209	0.057361	-0.213541	-1.276255	0.375970	0.849072	-0.341712	0.000000000	0.000000000	0.000000	
37825	-5.295526	-6.676566	-1.458980	0.110396	-0.134626	-1.114343	0.366374	0.856942	-0.343894	0.000000000	0.000000000	0.000000	
37826	-5.422002	-7.240520	-0.650037	0.190378	-0.186939	-0.872239	0.359991	0.861268	-0.343603	0.000000000	0.000000000	0.000000	
37827	-5.109610	-8.357379	0.185551	0.250125	-0.169294	-0.741351	0.355241	0.861568	-0.348305	0.000000000	0.000000000	0.000000	
37828	-3.219402	-7.656561	-0.065211	0.258898	-0.081374	-0.591166	0.352070	0.874586	-0.348115	0.000000000	0.000000000	0.000000	
37829	-1.727418	-6.100246	-0.612964	0.206711	-0.094235	-0.392179	0.352024	0.869750	-0.353204	0.000000000	0.000000000	0.000000	
37830	-1.368298	-3.302589	-1.718407	0.086995	-0.016191	-0.113414	0.347688	0.877893	-0.351461	0.000000000	0.000000000	0.000000	
37831	-1.514520	-0.482365	-1.750043	-0.041121	0.044545	0.267718	0.354489	0.876672	-0.349589	0.000000000	0.000000000	0.000000	
37832	-2.005530	0.858731	-0.774912	-0.098963	0.051793	0.639179	0.357398	0.877475	-0.352105	0.000000000	0.000000000	0.000000	
37833	-2.395370	1.079693	-0.123523	-0.160945	0.058395	0.930498	0.363176	0.880014	-0.351106	0.000000000	0.000000000	0.000000	
37834	-2.552206	1.192525	0.192207	-0.307127	0.086284	1.194316	0.375822	0.870113	-0.353571	0.000000000	0.000000000	0.000000	
37835	-2.691824	1.153830	0.318917	-0.469849	0.130450	1.428974	0.382897	0.877901	-0.347545	0.000000000	0.000000000	0.000000	
37836	-2.896818	0.812662	0.365907	-0.581278	0.187879	1.658374	0.393893	0.870972	-0.345283	0.000000000	0.000000000	0.000000	
37837	-3.012950	0.114287	0.246613	-0.663633	0.216050	1.895073	0.404863	0.873564	-0.341435	0.000000000	0.000000000	0.000000	
37838	-3.063699	-0.903295	-0.001146	-0.696561	0.280828	2.093678	0.423085	0.867314	-0.335001	0.000000000	0.000000000	0.000000	
37839	-3.256786	-1.830323	-0.167962	-0.759120	0.323742	2.259311	0.437175	0.856789	-0.332150	0.000000000	0.000000000	0.000000	
37840	-3.724848	-2.616996	-0.152960	-0.794322	0.374472	2.397679	0.456459	0.859590	-0.322321	0.000000000	0.000000000	0.000000	
37841	-4.378684	-3.143028	-0.122455	-0.863991	0.440314	2.563448	0.474447	0.846470	-0.317226	0.000000000	0.000000000	0.000000	
37842	-5.032461	-3.301240	-0.113761	-0.910101	0.477860	2.736373	0.493768	0.842541	-0.308856	0.000000000	0.000000000	0.000000	
37843	-5.556791	-3.047013	-0.071288	-0.900465	0.479859	2.953860	0.516062	0.828134	-0.303912	0.000000000	0.000000000	0.000000	
37844	-5.946972	-2.643069	0.017419	-0.864269	0.474479	3.188631	0.536059	0.816190	-0.297899	0.000000000	0.000000000	0.000000	
37845	-6.412238	-2.343182	-0.006302	-0.796259	0.442579	3.427973	0.561477	0.809272	-0.289973	0.000000000	0.000000000	0.000000	
37846	-6.883096	-2.288706	-0.099401	-0.760187	0.452401	3.624555	0.583236	0.786242	-0.288931	0.000000000	0.000000000	0.000000	
37847	-7.425111	-2.208072	-0.149244	-0.713243	0.481811	3.779234	0.608978	0.779328	-0.278036	0.000000000	0.000000000	0.000000	
37848	-8.221020	-2.469975	-0.278811	-0.717601	0.534035	3.886599	0.633192	0.754489	-0.277786	0.000000000	0.000000000	0.000000	
37849	-9.158487	-2.675956	-0.497082	-0.763254	0.592758	3.965651	0.655881	0.738270	-0.270937	0.000000000	0.000000000	0.000000	
37850	-9.719365	-2.864762	-0.246242	-0.821072	0.609447	4.041656	0.683335	0.718604	-0.263537	0.000000000	0.000000000	0.000000	
37851	-10.218864	-2.972030	-0.071935	-0.847176	0.621047	4.082036	0.707965	0.691739	-0.256551	0.000000000	0.000000000	0.000000	
37852	-10.844770	-3.382955	-0.125557	-0.869090	0.639414	4.055900	0.736762	0.678525	-0.241173	0.000000000	0.000000000	0.000000	
37853	-11.637501	-4.051545	-0.138991	-0.931204	0.661714	4.024355	0.754643	0.648208	-0.241815	0.000000000	0.000000000	0.000000	
37854	-12.206399	-4.426608	-0.222605	-0.978179	0.638364	3.993438	0.776031	0.628343	-0.231143	0.000000000	0.000000000	0.000000	
37855	-12.621479	-4.638714	-0.454746	-1.016295	0.576817	3.973265	0.798556	0.601869	-0.224415	0.000000000	0.000000000	0.000000	
37856	-13.145560	-4.882134	-0.603768	-1.027887	0.538475	3.921299	0.815227	0.577446	-0.220042	0.000000000	0.000000000	0.000000	
37857	-13.505380	-5.120956	-0.792652	-1.043491	0.478055	3.843620	0.840863	0.557738	-0.206040	0.000000000	0.000000000	0.000000	
37858	-13.760538	-5.357439	-1.016052	-1.046365	0.420131	3.753148	0.850369	0.527723	-0.209178	0.000000000	0.000000000	0.000000	
37859	-13.726212	-5.671753	-1.149153	-1.037769	0.342517	3.619618	0.869060	0.509672	-0.194911	0.000000000	0.000000000	0.000000	
37860	-13.641791	-5.826152	-1.295497	-1.026980	0.305888	3.495316	0.883258	0.483167	-0.192152	0.000000000	0.000000000	0.000000	
37861	-13.642719	-5.846954	-1.393433	-1.037508	0.257352	3.340801	0.895535	0.458224	-0.188972	0.000000000	0.000000000	0.000000	
37862	-13.421668	-5.928153	-1.477627	-1.019731	0.233669	3.148913	0.912000	0.436982	-0.181264	0.000000000	0.000000000	0.000000	
37863	-13.033674	-5.993040	-1.570752	-0.950782	0.209523	2.953388	0.915553	0.414290	-0.179533	0.000000000	0.000000000	0.000000	
37864	-12.640151	-5.719309	-1.608373	-0.832286	0.214964	2.750656	0.933287	0.397719	-0.162776	0.000000000	0.000000000	0.000000	
37865	-12.338819	-5.223813	-1.570518	-0.706449	0.215009	2.558855	0.937620	0.376805	-0.170929	0.000000000	0.000000000	0.000000	
37866	-12.051203	-4.652289	-1.474102	-0.552443	0.198397	2.358805	0.942762	0.358256	-0.166163	0.000000000	0.000000000	0.000000	
37867	-11.817809	-4.076327	-1.307745	-0.431305	0.189274	2.155095	0.950704	0.340055	-0.165663	0.000000000	0.000000000	0.000000	
37868	-11.665954	-3.671816	-1.173231	-0.345046	0.157745	1.956801	0.954192	0.326146	-0.160736	0.000000000	0.000000000	0.000000	
37869	-11.474026	-3.422319	-1.079114	-0.290570	0.122229	1.797734	0.966621	0.311666	-0.153143	0.000000000	0.000000000	0.000000	
37870	-11.234322	-3.187328	-0.977909	-0.254056	0.120561	1.647879	0.963748	0.297795	-0.165351	0.000000000	0.000000000	0.000000	
37871	-11.001795	-2.988135	-0.875922	-0.234106	0.108067	1.494318	0.969314	0.287483	-0.154006	0.000000000	0.000000000	0.000000	
37872	-10.774168	-2.822275	-0.785218	-0.221467	0.094736	1.342578	0.971748	0.275486	-0.159338	0.000000000	0.000000000	0.000000	
37873	-10.503314	-2.711685	-0.660175	-0.202248	0.084258	1.213687	0.974640	0.268169	-0.152985	0.000000000	0.000000000	0.000000	
37874	-10.228125	-2.667664	-0.577011	-0.205006	0.074809	1.079301	0.983518	0.257274	-0.148825	0.000000000	0.000000000	0.000000	
37875	-9.994508	-2.682490	-0.597872	-0.213411	0.059840	0.928478	0.977193	0.250120	-0.154004	0.000000000	0.000000000	0.000000	
37876	-9.861175	-2.639653	-0.631047	-0.212377	0.067744	0.796037	0.983561	0.244874	-0.145575	0.000000000	0.000000000	0.000000	
37877	-9.789113	-2.430006	-0.595095	-0.217184	0.050024	0.639734	0.979473	0.238033	-0.157332	0.000000000	0.000000000	0.000000	
37878	-9.740807	-2.067492	-0.559626	-0.274969	0.035493	0.490639	0.984893	0.234926	-0.146281	0.000000000	0.000000000	0.000000	
37879	-9.687972	-1.657034	-0.553951	-0.353026	0.002921	0.341436	0.987533	0.229353	-0.146250	0.000000000	0.000000000	0.000000	
37880	-9.551073	-1.398318	-0.733056	-0.460027	-0.008273	0.219669	0.982499	0.231021	-0.148825	0.000000000	0.000000000	0.000000	
37881	-9.429178	-1.349254	-0.970186	-0.540617	-0.033295	0.097035	0.986584	0.232660	-0.145910	0.000000000	0.000000000	0.000000	
37882	-9.323651	-1.431776	-1.161340	-0.615494	-0.035593	-0.021820	0.978516	0.231442	-0.159117	0.000000000	0.000000000	0.000000	
37883	-9.308026	-1.564783	-1.266751	-0.683100	-0.052421	-0.133368	0.985267	0.234495	-0.142503	0.000000000	0.000000000	0.000000	
37884	-9.239558	-1.743585	-1.330898	-0.728651	-0.046809	-0.257596	0.984944	0.236857	-0.147758	0.000000000	0.000000000	0.000000	
37885	-9.068513	-1.898771	-1.398784	-0.751609	-0.057044	-0.402890	0.981528	0.243348	-0.144617	0.000000000	0.000000000	0.000000	
37886	-8.943306	-1.957902	-1.528198	-0.761645	-0.057254	-0.539002	0.983644	0.248317	-0.142091	0.000000000	0.000000000	0.000000	
37887	-8.854383	-1.942513	-1.716389	-0.746858	-0.042112	-0.670460	0.972633	0.254122	-0.149045	0.000000000	0.000000000	0.000000	
37888	-8.809039	-2.031633	-1.964482	-0.718499	-0.065033	-0.777336	0.979760	0.261209	-0.133223	0.000000000	0.000000000	0.000000	
37889	-8.773405	-2.013109	-2.238656	-0.674294	-0.048934	-0.883157	0.973643	0.267344	-0.146602	0.000000000	0.000000000	0.000000	
37890	-8.661708	-2.018469	-2.541777	-0.628854	-0.005426	-0.971548	0.971068	0.278541	-0.141276	0.000000000	0.000000000	0.000000	
37891	-8.563828	-2.055217	-2.788970	-0.596138	0.032851	-1.043528	0.971686	0.287740	-0.138310	0.000000000	0.000000000	0.000000	
37892	-8.478658	-2.059688	-2.866369	-0.543294	0.077219	-1.126418	0.961941	0.298584	-0.138496	0.000000000	0.000000000	0.000000	
37893	-8.523189	-0.732656	-4.161883	-0.559894	0.149992	-1.180346	0.965259	0.307669	-0.132422	0.000000000	0.000000000	0.000000	
37894	-9.538216	3.776687	-3.332583	-0.587692	0.191397	-0.969999	0.955611	0.315841	-0.144400	0.000000000	0.000000000	0.000000	
37895	-9.328642	7.037623	-3.366502	-0.397279	0.157748	-0.702181	0.959472	0.323210	-0.129572	0.000000000	0.000000000	0.000000	
37896	-9.878172	11.476225	-2.506107	-0.324018	0.191117	-0.262639	0.957243	0.327859	-0.129712	0.000000000	0.000000000	0.000000	
37897	-10.185300	9.947843	-0.270315	0.097738	0.033562	0.016417	0.954292	0.329051	-0.130154	0.000000000	0.000000000	0.000000	
37898	-11.055715	4.191859	-0.295687	0.417634	0.083629	-0.157512	0.960260	0.328319	-0.130477	0.000000000	0.000000000	0.000000	
37899	-12.010064	0.659734	-0.792232	0.284965	0.096804	-0.371107	0.950819	0.329277	-0.138940	0.000000000	0.000000000	0.000000	
37900	-12.301600	1.216876	-0.114861	0.097505	0.132756	-0.574945	0.956950	0.336237	-0.123443	0.000000000	0.000000000	0.000000	
37901	-12.160646	2.951173	0.028922	-0.001903	0.183124	-0.718747	0.951230	0.340057	-0.132636	0.000000000	0.000000000	0.000000	
37902	-11.819498	2.528031	-0.711546	-0.040815	0.254023	-0.867420	0.948067	0.347170	-0.125457	0.000000000	0.000000000	0.000000	
37903	-11.299781	1.957178	-1.225022	-0.168336	0.319193	-1.002580	0.949614	0.355275	-0.127666	0.000000000	0.000000000	0.000000	
37904	-10.504911	1.607743	-1.416599	-0.255373	0.363490	-1.077632	0.939060	0.363426	-0.127356	0.000000000	0.000000000	0.000000	
37905	-10.076706	1.553165	-1.291951	-0.253636	0.346950	-1.073260	0.943737	0.374250	-0.115171	0.000000000	0.000000000	0.000000	
37906	-9.677211	1.171444	-2.175293	-0.222557	0.358670	-1.064994	0.935298	0.379598	-0.123317	0.000000000	0.000000000	0.000000	
37907	-9.309037	-0.546447	-2.477237	-0.240651	0.433553	-1.140274	0.936838	0.393616	-0.105688	0.000000000	0.000000000	0.000000	
37908	-10.281419	-2.264451	-2.230489	-0.099646	0.526323	-1.265923	0.929631	0.400392	-0.109742	0.000000000	0.000000000	0.000000	
37909	-10.643736	-2.600517	-2.167882	0.001578	0.392631	-1.296177	0.920402	0.408637	-0.108282	0.000000000	0.000000000	0.000000	
37910	-9.542057	-1.197923	-2.085479	0.056431	0.308331	-1.168345	0.923631	0.419652	-0.103693	0.000000000	0.000000000	0.000000	
37911	-8.556187	-1.963621	-2.231886	0.244466	0.318207	-1.089649	0.915083	0.426448	-0.102459	0.000000000	0.000000000	0.000000	
37912	-9.471504	-3.526970	-2.274231	0.376617	0.341380	-1.071328	0.918887	0.438559	-0.086438	0.000000000	0.000000000	0.000000	
37913	-9.955065	-3.007259	-1.973550	0.396187	0.310309	-0.980044	0.909495	0.440813	-0.103083	0.000000000	0.000000000	0.000000	
37914	-9.611020	-1.197903	-2.060907	0.419302	0.308873	-0.907500	0.905682	0.448786	-0.097420	0.000000000	0.000000000	0.000000	
37915	-9.577603	-0.137408	-2.140148	0.366926	0.356215	-0.844659	0.904902	0.454208	-0.096672	0.000000000	0.000000000	0.000000	
37916	-9.788065	0.105414	-1.956140	0.268271	0.364273	-0.842027	0.897763	0.459770	-0.097366	0.000000000	0.000000000	0.000000	
37917	-9.623967	0.589088	-1.537830	0.077626	0.408386	-0.827724	0.903931	0.470702	-0.090326	0.000000000	0.000000000	0.000000	
37918	-9.319712	0.966523	-1.689549	-0.059975	0.471249	-0.818771	0.890061	0.469832	-0.100517	0.000000000	0.000000000	0.000000	
37919	-9.321314	0.466092	-1.823394	-0.190537	0.472457	-0.791452	0.891005	0.482004	-0.083454	0.000000000	0.000000000	0.000000	
37920	-9.602363	-0.497364	-2.209454	-0.270788	0.486074	-0.777502	0.887381	0.483707	-0.083534	0.000000000	0.000000000	0.000000	
37921	-9.780698	-0.970900	-2.363946	-0.268911	0.460992	-0.741799	0.881601	0.492575	-0.080400	0.000000000	0.000000000	0.000000	
37922	-9.772625	-1.175253	-2.506240	-0.178361	0.420809	-0.686965	0.884018	0.497198	-0.073027	0.000000000	0.000000000	0.000000	
37923	-9.553212	-1.663093	-2.479059	-0.020171	0.370913	-0.632071	0.875075	0.496969	-0.075691	0.000000000	0.000000000	0.000000	
37924	-9.502609	-1.762147	-2.674216	0.065763	0.343331	-0.596416	0.877088	0.509317	-0.059371	0.000000000	0.000000000	0.000000	
37925	-9.723857	-1.619296	-2.871961	0.149051	0.333120	-0.565231	0.872966	0.507302	-0.071812	0.000000000	0.000000000	0.000000	
37926	-9.914303	-1.597591	-2.827611	0.205534	0.291970	-0.549706	0.870043	0.512143	-0.067431	0.000000000	0.000000000	0.000000	
37927	-9.875889	-1.648039	-2.798128	0.210044	0.268421	-0.531520	0.870824	0.507388	-0.068180	0.000000000	0.000000000	0.000000	
37928	-9.936602	-1.780240	-2.646206	0.199023	0.257562	-0.532439	0.863248	0.516061	-0.067028	0.000000000	0.000000000	0.000000	
37929	-9.708647	-1.531624	-2.782690	0.204456	0.250282	-0.522547	0.865146	0.524387	-0.059157	0.000000000	0.000000000	0.000000	
37930	-9.565130	-1.331638	-2.759141	0.224465	0.223865	-0.503531	0.858437	0.520138	-0.072816	0.000000000	0.000000000	0.000000	
37931	-9.487690	-1.266990	-3.159351	0.239196	0.232176	-0.484340	0.855408	0.527023	-0.063483	0.000000000	0.000000000	0.000000	
37932	-9.374520	-1.040542	-2.809799	0.299488	0.177486	-0.432486	0.855214	0.524558	-0.071000	0.000000000	0.000000000	0.000000	
37933	-9.371072	-1.350096	-2.928341	0.352622	0.180847	-0.422275	0.850014	0.534515	-0.065287	0.000000000	0.000000000	0.000000	
37934	-9.459464	-1.418437	-2.679110	0.376331	0.145384	-0.397664	0.852848	0.535341	-0.062308	0.000000000	0.000000000	0.000000	
37935	-9.448188	-1.180891	-2.511257	0.378260	0.142751	-0.380380	0.846853	0.531820	-0.071232	0.000000000	0.000000000	0.000000	
37936	-9.356949	-0.966587	-2.465964	0.356345	0.153729	-0.386850	0.845550	0.539448	-0.063276	0.000000000	0.000000000	0.000000	
37937	-9.313712	-0.661166	-2.458091	0.332429	0.144738	-0.393397	0.844784	0.531719	-0.075375	0.000000000	0.000000000	0.000000	
37938	-9.425943	-0.458347	-2.739533	0.306859	0.149670	-0.383380	0.843542	0.540904	-0.066481	0.000000000	0.000000000	0.000000	
37939	-9.456821	-0.657234	-2.965579	0.254456	0.149765	-0.423581	0.842592	0.537810	-0.065992	0.000000000	0.000000000	0.000000	
37940	-9.497430	-0.551378	-2.722661	0.262526	0.137699	-0.440062	0.835634	0.540343	-0.070425	0.000000000	0.000000000	0.000000	
37941	-9.245172	-1.163105	-2.746040	0.277231	0.157339	-0.459092	0.836795	0.546455	-0.069834	0.000000000	0.000000000	0.000000	
37942	-9.380408	-1.317965	-2.396305	0.260623	0.123808	-0.454590	0.831491	0.541010	-0.083275	0.000000000	0.000000000	0.000000	
37943	-9.289931	-1.064869	-2.435757	0.309865	0.111596	-0.455562	0.832063	0.549743	-0.069847	0.000000000	0.000000000	0.000000	
37944	-9.416535	-0.931241	-2.718083	0.315419	0.138844	-0.469139	0.828991	0.549920	-0.074452	0.000000000	0.000000000	0.000000	
37945	-9.620422	-0.348800	-2.622547	0.308109	0.155202	-0.484683	0.825656	0.552285	-0.074382	0.000000000	0.000000000	0.000000	
37946	-9.731703	-0.079811	-2.806968	0.285761	0.110888	-0.483984	0.824043	0.556763	-0.073547	0.000000000	0.000000000	0.000000	
37947	-9.706059	-0.255594	-2.602113	0.276401	0.079033	-0.486822	0.817287	0.552416	-0.079025	0.000000000	0.000000000	0.000000	
37948	-9.551245	-0.442744	-2.873144	0.277927	0.066075	-0.511530	0.819157	0.563196	-0.069417	0.000000000	0.000000000	0.000000	
37949	-9.331311	-0.830649	-2.797600	0.336380	0.059998	-0.521494	0.815623	0.556263	-0.078996	0.000000000	0.000000000	0.000000	
37950	-9.178669	-1.647975	-2.741622	0.367292	0.053045	-0.553296	0.811992	0.562407	-0.077074	0.000000000	0.000000000	0.000000	
37951	-9.125307	-2.112190	-2.612757	0.361425	0.037131	-0.603499	0.810822	0.565270	-0.075806	0.000000000	0.000000000	0.000000	
37952	-9.116686	-1.759172	-2.226490	0.325669	0.020019	-0.603704	0.805618	0.565324	-0.081071	0.000000000	0.000000000	0.000000	
37953	-8.824200	-1.661911	-2.595580	0.299899	0.014686	-0.608450	0.804613	0.573773	-0.079538	0.000000000	0.000000000	0.000000	
37954	-8.926910	-1.640043	-2.609551	0.285347	0.012239	-0.592926	0.799592	0.566662	-0.088398	0.000000000	0.000000000	0.000000	
37955	-8.970610	-1.795229	-2.934734	0.260534	0.016006	-0.609334	0.796147	0.577775	-0.081378	0.000000000	0.000000000	0.000000	
37956	-9.040485	-2.097290	-2.728929	0.253169	0.001470	-0.610217	0.794516	0.579264	-0.085232	0.000000000	0.000000000	0.000000	
37957	-9.022906	-2.115320	-2.889455	0.223681	-0.016550	-0.618546	0.790910	0.581621	-0.085043	0.000000000	0.000000000	0.000000	
37958	-8.918896	-1.798361	-2.505664	0.271610	-0.008464	-0.575637	0.788990	0.584383	-0.084624	0.000000000	0.000000000	0.000000	
37959	-8.964474	-2.264458	-2.752589	0.271734	-0.001928	-0.563614	0.785212	0.580559	-0.089261	0.000000000	0.000000000	0.000000	
37960	-9.135441	-2.185167	-2.414472	0.278995	-0.016556	-0.564531	0.783600	0.592440	-0.084149	0.000000000	0.000000000	0.000000	
37961	-9.063678	-2.451257	-2.630431	0.255219	-0.007339	-0.572714	0.779049	0.589330	-0.090039	0.000000000	0.000000000	0.000000	
37962	-9.155785	-2.678036	-2.255619	0.260625	-0.024774	-0.579078	0.773880	0.595863	-0.088207	0.000000000	0.000000000	0.000000	
37963	-9.172963	-2.427417	-2.582009	0.196402	-0.032494	-0.589299	0.773760	0.593947	-0.090088	0.000000000	0.000000000	0.000000	
37964	-9.204234	-2.489248	-2.604490	0.222017	-0.030853	-0.590142	0.769859	0.593745	-0.092325	0.000000000	0.000000000	0.000000	
37965	-9.264468	-2.367421	-2.932720	0.186396	-0.029441	-0.573758	0.766255	0.601070	-0.090001	0.000000000	0.000000000	0.000000	
37966	-9.374721	-2.411524	-2.726977	0.252013	-0.052785	-0.587392	0.765124	0.596602	-0.094618	0.000000000	0.000000000	0.000000	
37967	-9.565289	-1.691613	-2.492777	0.232751	-0.085080	-0.554766	0.758524	0.607185	-0.091267	0.000000000	0.000000000	0.000000	
37968	-9.460254	-1.389179	-2.766061	0.250973	-0.083356	-0.553924	0.756760	0.603699	-0.097130	0.000000000	0.000000000	0.000000	
37969	-9.655624	-1.360180	-2.738611	0.226096	-0.111276	-0.550347	0.754452	0.606669	-0.098477	0.000000000	0.000000000	0.000000	
37970	-9.765880	-1.655701	-2.770111	0.196696	-0.112141	-0.574944	0.751887	0.611789	-0.097295	0.000000000	0.000000000	0.000000	
37971	-9.720677	-2.324576	-2.733015	0.210279	-0.112544	-0.605833	0.748112	0.611632	-0.097514	0.000000000	0.000000000	0.000000	
37972	-9.799430	-1.706844	-2.269780	0.186308	-0.139753	-0.608828	0.745252	0.621329	-0.094481	0.000000000	0.000000000	0.000000	
37973	-9.717707	-1.611971	-2.212402	0.189847	-0.143578	-0.622586	0.743179	0.614929	-0.100757	0.000000000	0.000000000	0.000000	
37974	-9.823011	-1.862255	-2.228062	0.178587	-0.148376	-0.665445	0.739305	0.619809	-0.100456	0.000000000	0.000000000	0.000000	
37975	-9.944383	-2.055639	-2.179957	0.112300	-0.158414	-0.728506	0.734007	0.623766	-0.100637	0.000000000	0.000000000	0.000000	
37976	-9.979946	-2.141704	-2.149133	0.035078	-0.181823	-0.766118	0.730570	0.625270	-0.102181	0.000000000	0.000000000	0.000000	
37977	-9.936434	-2.338123	-2.073566	0.045091	-0.197335	-0.758822	0.724287	0.634327	-0.100419	0.000000000	0.000000000	0.000000	
37978	-9.738029	-1.625324	-2.343914	0.019551	-0.179795	-0.750813	0.722816	0.628966	-0.105991	0.000000000	0.000000000	0.000000	
37979	-9.807961	-1.801945	-2.666045	0.071673	-0.165614	-0.761573	0.717239	0.641124	-0.101915	0.000000000	0.000000000	0.000000	
37980	-9.988429	-2.573653	-2.514616	0.078612	-0.180696	-0.818906	0.712624	0.641595	-0.104463	0.000000000	0.000000000	0.000000	
37981	-10.028952	-2.561022	-2.255425	0.041621	-0.199099	-0.869245	0.708090	0.646144	-0.105809	0.000000000	0.000000000	0.000000	
37982	-9.860841	-2.235051	-2.162649	0.074181	-0.206170	-0.914103	0.702114	0.651849	-0.103485	0.000000000	0.000000000	0.000000	
37983	-9.848026	-2.109749	-2.333221	0.084788	-0.216539	-0.951598	0.696111	0.653637	-0.105983	0.000000000	0.000000000	0.000000	
37984	-9.941336	-3.079727	-2.543196	0.115560	-0.217191	-1.008824	0.692154	0.666247	-0.102752	0.000000000	0.000000000	0.000000	
37985	-9.966218	-4.101271	-2.575172	0.111602	-0.199686	-1.091621	0.684102	0.663153	-0.106699	0.000000000	0.000000000	0.000000	
37986	-9.887518	-3.826154	-2.343868	0.145196	-0.205751	-1.124560	0.678707	0.669845	-0.108502	0.000000000	0.000000000	0.000000	
37987	-9.666307	-2.827766	-2.493012	0.189017	-0.188920	-1.136614	0.670283	0.673951	-0.109669	0.000000000	0.000000000	0.000000	
37988	-9.555152	-2.555022	-2.619403	0.237350	-0.195679	-1.140318	0.666854	0.681183	-0.111225	0.000000000	0.000000000	0.000000	
37989	-9.765558	-3.125619	-2.879628	0.243788	-0.174861	-1.161942	0.658614	0.690228	-0.109576	0.000000000	0.000000000	0.000000	
37990	-10.091599	-3.378544	-2.771020	0.304396	-0.192369	-1.253060	0.651496	0.687804	-0.116421	0.000000000	0.000000000	0.000000	
37991	-10.147143	-1.893883	-2.699722	0.364423	-0.202948	-1.272512	0.642914	0.699825	-0.115872	0.000000000	0.000000000	0.000000	
37992	-10.005807	-1.333949	-2.937718	0.472078	-0.198504	-1.300819	0.636975	0.702201	-0.119574	0.000000000	0.000000000	0.000000	
37993	-10.393003	-1.485251	-2.998583	0.477185	-0.188121	-1.376399	0.628470	0.712133	-0.119954	0.000000000	0.000000000	0.000000	
37994	-10.971645	-1.559156	-3.126572	0.485557	-0.193483	-1.492162	0.617400	0.719382	-0.123428	0.000000000	0.000000000	0.000000	
37995	-11.339282	-1.190121	-3.176500	0.539577	-0.208317	-1.602588	0.610363	0.723470	-0.126930	0.000000000	0.000000000	0.000000	
37996	-11.618780	-0.293918	-3.537689	0.624852	-0.196854	-1.702065	0.599224	0.733868	-0.129341	0.000000000	0.000000000	0.000000	
37997	-12.220981	-0.181662	-3.647640	0.717654	-0.181694	-1.793917	0.589546	0.733494	-0.134864	0.000000000	0.000000000	0.000000	
37998	-12.949366	-0.330233	-3.964793	0.728210	-0.130667	-1.920363	0.576720	0.747890	-0.137650	0.000000000	0.000000000	0.000000	
37999	-13.261584	0.220389	-3.714161	0.861508	-0.096758	-1.997682	0.562518	0.757292	-0.142249	0.000000000	0.000000000	0.000000	
38000	-13.586023	0.755147	-3.237588	1.053594	-0.067525	-2.034741	0.552940	0.763882	-0.148586	0.000000000	0.000000000	0.000000	
38001	-13.957820	0.787527	-2.940018	1.237785	-0.035054	-2.025091	0.538809	0.773434	-0.156534	0.000000000	0.000000000	0.000000	
38002	-14.419025	0.239933	-2.975477	1.395973	-0.010919	-2.066481	0.529256	0.772736	-0.166743	0.000000000	0.000000000	0.000000	
38003	-14.579438	0.382332	-2.789866	1.545933	-0.016529	-2.065337	0.515086	0.788350	-0.173232	0.000000000	0.000000000	0.000000	
38004	-14.480168	0.202423	-2.364829	1.642407	-0.088301	-2.062702	0.503389	0.793707	-0.182238	0.000000000	0.000000000	0.000000	
38005	-14.326643	-0.795325	-2.456366	1.649168	-0.146836	-2.087376	0.491996	0.800216	-0.193106	0.000000000	0.000000000	0.000000	
38006	-14.564726	-1.962536	-2.056567	1.574751	-0.269780	-2.163373	0.474301	0.806791	-0.206753	0.000000000	0.000000000	0.000000	
38007	-14.430298	-3.291655	-1.867762	1.465548	-0.388959	-2.243152	0.459300	0.811089	-0.219569	0.000000000	0.000000000	0.000000	
38008	-13.361267	-3.949252	-2.827952	1.286502	-0.478033	-2.363585	0.442513	0.824658	-0.225534	0.000000000	0.000000000	0.000000	
38009	-12.553587	-3.262092	-3.772267	1.064370	-0.520451	-2.398300	0.429916	0.828320	-0.235527	0.000000000	0.000000000	0.000000	
38010	-11.740511	-2.193192	-3.654316	0.997380	-0.603248	-2.315218	0.413416	0.837584	-0.243478	0.000000000	0.000000000	0.000000	
38011	-10.850865	-2.221677	-2.660798	0.975101	-0.646281	-2.195175	0.396797	0.845997	-0.253311	0.000000000	0.000000000	0.000000	
38012	-9.947344	-3.500385	-2.131612	0.973528	-0.628322	-2.061805	0.382288	0.852015	-0.262749	0.000000000	0.000000000	0.000000	
38013	-9.128638	-4.191458	-2.299708	0.839219	-0.499923	-1.915562	0.368212	0.859526	-0.269751	0.000000000	0.000000000	0.000000	
38014	-8.535681	-4.393503	-2.662895	0.678586	-0.345635	-1.759256	0.357119	0.860855	-0.277908	0.000000000	0.000000000	0.000000	
38015	-8.041091	-4.399572	-2.331059	0.559178	-0.190929	-1.611121	0.344766	0.872281	-0.279721	0.000000000	0.000000000	0.000000	
38016	-7.236381	-5.015588	-1.958349	0.508876	-0.081548	-1.475793	0.334006	0.875974	-0.287059	0.000000000	0.000000000	0.000000	
38017	-6.729782	-5.715085	-1.821359	0.468406	0.024956	-1.368644	0.322647	0.882428	-0.290682	0.000000000	0.000000000	0.000000	
38018	-6.566982	-6.380020	-1.710960	0.521300	0.085140	-1.190175	0.319114	0.885499	-0.291564	0.000000000	0.000000000	0.000000	
38019	-6.054957	-7.624653	-1.462261	0.606245	0.048269	-1.037561	0.311756	0.887814	-0.300177	0.000000000	0.000000000	0.000000	
38020	-3.877192	-8.297300	-1.730938	0.695419	0.113646	-0.887111	0.304294	0.898073	-0.301705	0.000000000	0.000000000	0.000000	
38021	-2.741561	-6.769235	-2.879701	0.690109	0.280600	-0.714671	0.304276	0.895617	-0.306395	0.000000000	0.000000000	0.000000	
38022	-3.098916	-2.680918	-2.877545	0.578452	0.321644	-0.293627	0.298762	0.901059	-0.310080	0.000000000	0.000000000	0.000000	
38023	-3.723199	1.381664	-1.817010	0.526793	0.199339	0.240253	0.305604	0.899041	-0.314240	0.000000000	0.000000000	0.000000	
38024	-4.138892	3.302605	-0.484738	0.577715	0.063989	0.634949	0.309640	0.898178	-0.320980	0.000000000	0.000000000	0.000000	
38025	-4.151618	3.455536	0.186439	0.538999	0.033603	0.893181	0.315486	0.900834	-0.325610	0.000000000	0.000000000	0.000000	
38026	-4.005572	3.319200	0.507041	0.347133	0.110337	1.100437	0.325075	0.890831	-0.332410	0.000000000	0.000000000	0.000000	
38027	-3.754333	2.799614	0.623361	0.118933	0.221873	1.304163	0.333729	0.896265	-0.330044	0.000000000	0.000000000	0.000000	
38028	-3.605707	1.942910	0.507430	-0.127561	0.300334	1.549868	0.346796	0.889266	-0.334771	0.000000000	0.000000000	0.000000	
38029	-3.485528	0.620344	0.446714	-0.323141	0.350951	1.775578	0.357261	0.890182	-0.332289	0.000000000	0.000000000	0.000000	
38030	-3.428963	-0.954071	0.235668	-0.489597	0.425531	1.950362	0.373370	0.886829	-0.328533	0.000000000	0.000000000	0.000000	
38031	-3.704373	-2.266947	-0.030637	-0.667043	0.516536	2.105153	0.390220	0.881218	-0.321777	0.000000000	0.000000000	0.000000	
38032	-4.164161	-2.830540	-0.168947	-0.815170	0.595806	2.289056	0.406035	0.884645	-0.311748	0.000000000	0.000000000	0.000000	
38033	-4.651175	-2.504112	-0.224209	-0.897646	0.625846	2.514693	0.426619	0.872484	-0.309725	0.000000000	0.000000000	0.000000	
38034	-5.014678	-1.814520	-0.367003	-0.957999	0.635318	2.802260	0.444503	0.869007	-0.299829	0.000000000	0.000000000	0.000000	
38035	-5.222051	-1.154808	-0.395351	-0.970895	0.635215	3.084339	0.471113	0.856943	-0.292762	0.000000000	0.000000000	0.000000	
38036	-5.612314	-0.523872	-0.332812	-0.945566	0.631900	3.337311	0.494179	0.845957	-0.286707	0.000000000	0.000000000	0.000000	
38037	-6.191837	-0.369583	-0.316649	-0.948468	0.653262	3.571329	0.519139	0.839364	-0.277200	0.000000000	0.000000000	0.000000	
38038	-6.969277	-0.410707	-0.273287	-0.980940	0.660942	3.768840	0.541896	0.818593	-0.275836	0.000000000	0.000000000	0.000000	
38039	-7.714005	-0.613840	-0.291712	-0.996983	0.679262	3.948176	0.569281	0.812316	-0.260958	0.000000000	0.000000000	0.000000	
38040	-8.510703	-1.027426	-0.238280	-1.046167	0.700171	4.083704	0.598574	0.792080	-0.255327	0.000000000	0.000000000	0.000000	
38041	-9.375231	-1.526054	-0.288124	-1.072869	0.687174	4.203665	0.627015	0.772815	-0.247736	0.000000000	0.000000000	0.000000	
38042	-10.220858	-1.995928	-0.360299	-1.103531	0.660307	4.294335	0.656793	0.753403	-0.236580	0.000000000	0.000000000	0.000000	
38043	-10.777475	-2.466837	-0.398900	-1.128880	0.616862	4.379373	0.680821	0.731233	-0.230445	0.000000000	0.000000000	0.000000	
38044	-11.120641	-3.138030	-0.560014	-1.146963	0.570563	4.462560	0.708697	0.717039	-0.214179	0.000000000	0.000000000	0.000000	
38045	-11.312035	-3.605304	-0.580170	-1.162349	0.515995	4.548359	0.733745	0.683806	-0.213728	0.000000000	0.000000000	0.000000	
38046	-11.350252	-3.734158	-0.574852	-1.125168	0.401904	4.639373	0.761801	0.657480	-0.203192	0.000000000	0.000000000	0.000000	
38047	-11.689811	-3.864032	-0.646147	-1.092511	0.305144	4.716849	0.787362	0.623018	-0.198953	0.000000000	0.000000000	0.000000	
38048	-12.387787	-4.028351	-0.771308	-1.038721	0.233700	4.777231	0.807130	0.600233	-0.191856	0.000000000	0.000000000	0.000000	
38049	-13.163483	-4.258314	-1.038439	-0.979697	0.154766	4.810241	0.834996	0.573675	-0.182136	0.000000000	0.000000000	0.000000	
38050	-13.935220	-4.547398	-1.388381	-0.945238	0.106806	4.825987	0.851651	0.533854	-0.191009	0.000000000	0.000000000	0.000000	
38051	-14.563745	-4.538328	-1.755136	-0.931266	0.047703	4.803187	0.876461	0.505596	-0.176633	0.000000000	0.000000000	0.000000	
38052	-15.000677	-4.449110	-2.050748	-1.021527	0.015381	4.749189	0.893478	0.466720	-0.179720	0.000000000	0.000000000	0.000000	
38053	-15.271467	-4.598571	-2.422117	-1.168893	-0.009930	4.622069	0.909539	0.442164	-0.169480	0.000000000	0.000000000	0.000000	
38054	-15.255554	-4.854223	-2.743377	-1.340089	0.005227	4.434711	0.928853	0.407398	-0.162651	0.000000000	0.000000000	0.000000	
38055	-14.886357	-5.211303	-3.039177	-1.507656	0.018380	4.245426	0.935342	0.371720	-0.164879	0.000000000	0.000000000	0.000000	
38056	-14.158214	-5.589279	-3.220020	-1.601282	0.048656	4.013272	0.952703	0.343876	-0.149326	0.000000000	0.000000000	0.000000	
38057	-13.561984	-6.116261	-3.207218	-1.568391	0.119782	3.772406	0.958316	0.309485	-0.156704	0.000000000	0.000000000	0.000000	
38058	-12.999441	-6.644723	-2.968585	-1.426497	0.204672	3.536332	0.969675	0.287864	-0.141512	0.000000000	0.000000000	0.000000	
38059	-12.406704	-7.246704	-2.812694	-1.213125	0.298272	3.315017	0.978504	0.256963	-0.139859	0.000000000	0.000000000	0.000000	
38060	-12.178438	-7.376345	-3.143081	-1.084903	0.394561	3.092689	0.980068	0.237017	-0.134359	0.000000000	0.000000000	0.000000	
38061	-11.779675	-7.030712	-2.879906	-0.926391	0.392080	2.857094	0.989710	0.211577	-0.126501	0.000000000	0.000000000	0.000000	
38062	-11.354871	-6.931643	-2.875883	-0.780477	0.360019	2.551108	0.986288	0.187959	-0.138316	0.000000000	0.000000000	0.000000	
38063	-11.026185	-7.039616	-2.929254	-0.627449	0.342066	2.194126	0.996173	0.171952	-0.117856	0.000000000	0.000000000	0.000000	
38064	-10.623416	-7.259553	-2.705093	-0.403305	0.329445	1.787958	0.996798	0.152636	-0.120728	0.000000000	0.000000000	0.000000	
38065	-10.184093	-7.293841	-2.413009	-0.120926	0.315995	1.337985	0.998993	0.146780	-0.114418	0.000000000	0.000000000	0.000000	
38066	-10.152200	-7.325638	-2.316671	0.128187	0.290847	0.851534	1.002951	0.134672	-0.110942	0.000000000	0.000000000	0.000000	
38067	-10.152120	-7.342419	-2.306737	0.269093	0.242722	0.348406	0.995818	0.132793	-0.118058	0.000000000	0.000000000	0.000000	
38068	-9.777981	-7.297731	-2.358770	0.349631	0.172436	-0.123989	1.004242	0.128624	-0.103477	0.000000000	0.000000000	0.000000	
38069	-9.288704	-7.303982	-2.341171	0.404812	0.100784	-0.558102	0.999341	0.129461	-0.117310	0.000000000	0.000000000	0.000000	
38070	-8.787526	-7.362798	-2.322613	0.387479	0.065604	-0.937396	0.999347	0.138628	-0.110757	0.000000000	0.000000000	0.000000	
38071	-8.275465	-7.442963	-2.670781	0.298447	0.068741	-1.268258	0.997967	0.150343	-0.110863	0.000000000	0.000000000	0.000000	
38072	-8.125232	-6.386919	-3.528231	0.032821	0.147655	-1.537157	0.992006	0.166072	-0.115267	0.000000000	0.000000000	0.000000	
38073	-8.714329	-6.389609	-2.222893	-0.061729	0.131757	-1.762726	0.997746	0.176475	-0.108386	0.000000000	0.000000000	0.000000	
38074	-10.416180	-4.914713	-2.151932	-0.215012	0.076669	-1.920894	0.986968	0.192315	-0.125275	0.000000000	0.000000000	0.000000	
38075	-13.762094	4.617976	1.642603	-0.472323	-0.337566	-1.608808	0.992296	0.207746	-0.111722	0.000000000	0.000000000	0.000000	
38076	-13.787503	13.682089	1.810350	-0.642507	-0.525745	-1.122376	0.984964	0.220479	-0.117942	0.000000000	0.000000000	0.000000	
38077	-12.888719	14.753254	0.883916	-0.810605	-0.276748	-1.070248	0.979566	0.230908	-0.119888	0.000000000	0.000000000	0.000000	
38078	-13.614988	6.717278	1.138410	-0.713231	-0.049852	-1.266236	0.985308	0.237207	-0.119569	0.000000000	0.000000000	0.000000	
38079	-13.783273	-2.520352	0.937406	-0.580119	-0.075640	-1.710459	0.973646	0.252843	-0.126047	0.000000000	0.000000000	0.000000	
38080	-13.666271	-5.895472	-0.588551	-0.812618	0.183360	-2.069845	0.976047	0.270451	-0.108107	0.000000000	0.000000000	0.000000	
38081	-13.548715	-2.476819	-1.291832	-0.880150	0.314414	-2.140632	0.968865	0.288146	-0.112050	0.000000000	0.000000000	0.000000	
38082	-11.329435	-2.320271	-4.082258	-0.946309	0.409665	-2.206017	0.963837	0.309753	-0.101658	0.000000000	0.000000000	0.000000	
38083	-11.551450	-4.913151	-4.666281	-0.813333	0.756937	-2.455015	0.956688	0.328960	-0.100639	0.000000000	0.000000000	0.000000	
38084	-12.029920	-5.354568	-4.514205	-0.623969	0.754792	-2.454464	0.940803	0.349427	-0.096775	0.000000000	0.000000000	0.000000	
38085	-11.301131	-2.547589	-2.307362	-0.306749	0.343772	-1.979683	0.946155	0.364442	-0.082817	0.000000000	0.000000000	0.000000	
38086	-8.336228	-3.258684	-2.852992	0.282260	0.127431	-1.665360	0.938505	0.381300	-0.092016	0.000000000	0.000000000	0.000000	
38087	-7.588043	-5.552036	-4.322103	0.637034	0.272369	-1.544381	0.937114	0.395128	-0.076702	0.000000000	0.000000000	0.000000	
38088	-8.389163	-4.717746	-3.813968	0.665633	0.171250	-1.244174	0.929303	0.401930	-0.090449	0.000000000	0.000000000	0.000000	
38089	-8.740095	-2.422812	-2.729694	0.822194	0.070709	-0.947925	0.922944	0.415976	-0.090043	0.000000000	0.000000000	0.000000	
38090	-9.764518	-2.514256	-1.534059	0.992878	0.054704	-0.878862	0.926620	0.417403	-0.091443	0.000000000	0.000000000	0.000000	
38091	-10.634222	-2.044525	-1.445040	0.852123	0.085802	-0.908910	0.917880	0.421366	-0.095445	0.000000000	0.000000000	0.000000	
38092	-10.680132	0.268329	-1.683212	0.606970	0.104107	-0.905177	0.922685	0.433566	-0.081244	0.000000000	0.000000000	0.000000	
38093	-10.380753	1.026870	-1.362749	0.378385	0.116436	-0.913987	0.913723	0.435081	-0.102155	0.000000000	0.000000000	0.000000	
38094	-9.712513	-0.139634	-1.767103	0.135339	0.218169	-1.009839	0.907549	0.453400	-0.089944	0.000000000	0.000000000	0.000000	
38095	-8.997293	0.147238	-2.105189	-0.116828	0.314754	-1.076858	0.905612	0.441234	-0.098346	0.000000000	0.000000000	0.000000	
38096	-8.974017	0.842129	-2.476864	-0.248896	0.382382	-1.056896	0.901563	0.459745	-0.090037	0.000000000	0.000000000	0.000000	
38097	-9.415165	-0.298048	-2.107088	-0.138171	0.348187	-1.032688	0.902566	0.471774	-0.078738	0.000000000	0.000000000	0.000000	
38098	-9.518602	-1.659314	-2.349874	-0.007364	0.325667	-1.010294	0.891407	0.477882	-0.092543	0.000000000	0.000000000	0.000000	
38099	-9.312153	-2.172017	-2.175736	0.082948	0.245305	-0.955604	0.888713	0.493901	-0.075833	0.000000000	0.000000000	0.000000	
38100	-9.116563	-2.420969	-3.187193	0.198228	0.235963	-0.905236	0.885522	0.485691	-0.086597	0.000000000	0.000000000	0.000000	
38101	-9.577007	-3.138734	-3.128060	0.365556	0.185259	-0.859172	0.881177	0.508146	-0.083142	0.000000000	0.000000000	0.000000	
38102	-9.748048	-2.772740	-2.819714	0.522040	0.180640	-0.840714	0.882943	0.502058	-0.083697	0.000000000	0.000000000	0.000000	
38103	-9.481997	-1.921001	-2.498450	0.637335	0.151891	-0.788882	0.873495	0.511491	-0.088021	0.000000000	0.000000000	0.000000	
38104	-9.390749	-1.133408	-2.495904	0.661223	0.157351	-0.766212	0.873177	0.524657	-0.075594	0.000000000	0.000000000	0.000000	
38105	-9.637636	-0.658302	-2.397843	0.571792	0.172736	-0.754448	0.869562	0.519813	-0.093230	0.000000000	0.000000000	0.000000	
38106	-9.654969	-0.982046	-2.184845	0.499721	0.180535	-0.748971	0.861718	0.524475	-0.091817	0.000000000	0.000000000	0.000000	
38107	-9.554838	-1.353725	-2.677212	0.381650	0.188599	-0.765505	0.862598	0.511580	-0.095224	0.000000000	0.000000000	0.000000	
38108	-9.682295	-1.880532	-2.744689	0.341380	0.179842	-0.766343	0.854748	0.532818	-0.092104	0.000000000	0.000000000	0.000000	
38109	-9.601262	-1.791703	-2.504851	0.378041	0.170559	-0.747194	0.853667	0.542722	-0.087360	0.000000000	0.000000000	0.000000	
38110	-9.153775	-1.718092	-2.625261	0.410911	0.149486	-0.720908	0.846539	0.538470	-0.101043	0.000000000	0.000000000	0.000000	
38111	-8.869176	-2.130849	-2.777677	0.460296	0.126566	-0.690780	0.842705	0.545491	-0.097927	0.000000000	0.000000000	0.000000	
38112	-9.094103	-1.565999	-2.890333	0.448791	0.146268	-0.645119	0.842239	0.542485	-0.105325	0.000000000	0.000000000	0.000000	
38113	-9.062452	-0.646898	-2.892336	0.483774	0.146452	-0.595065	0.835944	0.556820	-0.099417	0.000000000	0.000000000	0.000000	
38114	-9.200663	-0.752353	-3.121761	0.526709	0.153427	-0.605858	0.837244	0.556799	-0.098671	0.000000000	0.000000000	0.000000	
38115	-9.912251	-1.038382	-2.906078	0.513956	0.156361	-0.617425	0.830406	0.554110	-0.105499	0.000000000	0.000000000	0.000000	
38116	-9.786752	-0.731050	-2.519875	0.508353	0.148858	-0.633104	0.826736	0.560847	-0.101971	0.000000000	0.000000000	0.000000	
38117	-9.519731	-1.358693	-3.006087	0.456544	0.089094	-0.645211	0.823931	0.554497	-0.115532	0.000000000	0.000000000	0.000000	
38118	-9.639740	-0.985185	-3.110971	0.416779	0.027727	-0.630924	0.819946	0.565628	-0.105996	0.000000000	0.000000000	0.000000	
38119	-9.561414	-0.270260	-2.953307	0.442393	0.014054	-0.606473	0.820672	0.563045	-0.107692	0.000000000	0.000000000	0.000000	
38120	-9.198088	-0.776389	-3.099706	0.491739	0.011740	-0.609153	0.813802	0.564815	-0.112922	0.000000000	0.000000000	0.000000	
38121	-9.320083	-1.478105	-3.079734	0.499853	-0.016442	-0.603555	0.812474	0.570823	-0.116500	0.000000000	0.000000000	0.000000	
38122	-9.629462	-0.743897	-2.794440	0.447561	-0.046834	-0.592851	0.806044	0.563810	-0.127856	0.000000000	0.000000000	0.000000	
38123	-9.592265	-0.353301	-2.673075	0.444577	-0.065152	-0.605812	0.804814	0.575654	-0.118832	0.000000000	0.000000000	0.000000	
38124	-9.184117	-2.129979	-2.777442	0.390668	-0.109461	-0.707144	0.802900	0.576176	-0.124980	0.000000000	0.000000000	0.000000	
38125	-9.496504	-1.797786	-2.016190	0.238532	-0.119855	-0.768574	0.796565	0.580968	-0.126162	0.000000000	0.000000000	0.000000	
38126	-8.837826	-0.857386	-2.582896	0.162197	-0.112487	-0.811117	0.792384	0.584132	-0.126277	0.000000000	0.000000000	0.000000	
38127	-8.942994	-1.476241	-2.811845	0.077989	-0.109229	-0.830229	0.784503	0.581383	-0.131959	0.000000000	0.000000000	0.000000	
38128	-9.322742	-2.345004	-3.043041	0.095848	-0.129622	-0.880163	0.783291	0.595449	-0.124951	0.000000000	0.000000000	0.000000	
38129	-9.556474	-1.864289	-3.069958	0.197961	-0.152211	-0.893816	0.778882	0.590037	-0.132974	0.000000000	0.000000000	0.000000	
38130	-9.370290	-1.178695	-2.857431	0.279604	-0.129119	-0.877397	0.772074	0.599600	-0.130707	0.000000000	0.000000000	0.000000	
38131	-9.531267	-2.835192	-2.851469	0.303768	-0.133784	-0.979212	0.769561	0.602115	-0.130858	0.000000000	0.000000000	0.000000	
38132	-10.076162	-3.263560	-2.147298	0.234861	-0.124062	-1.073972	0.761184	0.605887	-0.133497	0.000000000	0.000000000	0.000000	
38133	-9.525776	-1.830667	-2.082456	0.240167	-0.104548	-1.104558	0.756378	0.615364	-0.134870	0.000000000	0.000000000	0.000000	
38134	-9.458011	-2.360689	-2.451402	0.249100	-0.118309	-1.116362	0.751372	0.611476	-0.141321	0.000000000	0.000000000	0.000000	
38135	-9.785866	-3.465635	-2.728655	0.219247	-0.141302	-1.190084	0.743998	0.625742	-0.137085	0.000000000	0.000000000	0.000000	
38136	-10.232274	-2.039328	-2.350599	0.217506	-0.124818	-1.191122	0.737604	0.630042	-0.139208	0.000000000	0.000000000	0.000000	
38137	-10.257108	-1.191711	-2.007610	0.307084	-0.152555	-1.161141	0.727996	0.637487	-0.143805	0.000000000	0.000000000	0.000000	
38138	-10.558330	-2.836873	-2.202222	0.254492	-0.176245	-1.224739	0.722895	0.640737	-0.143034	0.000000000	0.000000000	0.000000	
38139	-10.780487	-1.984464	-1.783296	0.199984	-0.191018	-1.296230	0.717066	0.642770	-0.144986	0.000000000	0.000000000	0.000000	
38140	-10.272694	-0.769697	-1.920022	0.220849	-0.197615	-1.289377	0.710717	0.656975	-0.142166	0.000000000	0.000000000	0.000000	
38141	-10.215039	-3.264013	-2.712312	0.129908	-0.198389	-1.363831	0.701528	0.657888	-0.146590	0.000000000	0.000000000	0.000000	
38142	-10.435749	-3.216512	-2.589056	0.111260	-0.185223	-1.441370	0.692294	0.668270	-0.145269	0.000000000	0.000000000	0.000000	
38143	-10.079466	-1.606867	-2.115894	0.268755	-0.187093	-1.395067	0.686007	0.671561	-0.145641	0.000000000	0.000000000	0.000000	
38144	-9.921151	-2.344874	-2.481409	0.323694	-0.180162	-1.390272	0.676721	0.675476	-0.151686	0.000000000	0.000000000	0.000000	
38145	-10.820999	-3.697135	-2.672088	0.245277	-0.193836	-1.501220	0.669634	0.685171	-0.149436	0.000000000	0.000000000	0.000000	
38146	-10.830399	-2.157666	-2.261607	0.270538	-0.209764	-1.526255	0.658153	0.689309	-0.154938	0.000000000	0.000000000	0.000000	
38147	-10.070623	-1.319720	-2.212924	0.386853	-0.196102	-1.499093	0.649085	0.703975	-0.151069	0.000000000	0.000000000	0.000000	
38148	-10.505515	-3.899067	-2.598700	0.396600	-0.177725	-1.598707	0.640256	0.704400	-0.156410	0.000000000	0.000000000	0.000000	
38149	-11.251356	-3.385926	-2.278884	0.376985	-0.162689	-1.689866	0.630297	0.712994	-0.159957	0.000000000	0.000000000	0.000000	
38150	-10.651794	-1.059666	-1.613493	0.554171	-0.179745	-1.685849	0.620489	0.720682	-0.161078	0.000000000	0.000000000	0.000000	
38151	-10.597588	-2.196956	-1.854925	0.618108	-0.177660	-1.708324	0.608111	0.727058	-0.163150	0.000000000	0.000000000	0.000000	
38152	-11.424553	-3.137145	-1.936968	0.579104	-0.178014	-1.818374	0.595569	0.742686	-0.163643	0.000000000	0.000000000	0.000000	
38153	-11.360820	-1.198940	-1.902207	0.683048	-0.162733	-1.857904	0.587097	0.740890	-0.169897	0.000000000	0.000000000	0.000000	
38154	-11.290391	-2.309640	-2.197092	0.831944	-0.165846	-1.884845	0.574327	0.750677	-0.173877	0.000000000	0.000000000	0.000000	
38155	-12.778296	-2.313398	-3.122546	0.819613	-0.154627	-1.950047	0.559734	0.758289	-0.180238	0.000000000	0.000000000	0.000000	
38156	-13.908455	0.181784	-3.741524	0.922981	-0.184338	-2.004058	0.550093	0.763924	-0.183089	0.000000000	0.000000000	0.000000	
38157	-14.660122	0.611497	-4.809069	1.066122	-0.162613	-2.063862	0.536104	0.772842	-0.188748	0.000000000	0.000000000	0.000000	
38158	-15.802322	0.907375	-5.016540	1.214297	-0.133427	-2.091509	0.521672	0.776104	-0.199114	0.000000000	0.000000000	0.000000	
38159	-16.923361	2.054421	-5.066214	1.458790	-0.094594	-2.076262	0.507105	0.789566	-0.205219	0.000000000	0.000000000	0.000000	
38160	-17.661871	3.467362	-5.052496	1.863072	-0.114941	-2.020083	0.495795	0.791981	-0.216878	0.000000000	0.000000000	0.000000	
38161	-18.499431	4.390019	-4.876914	2.104930	-0.182701	-2.007095	0.482388	0.796082	-0.230942	0.000000000	0.000000000	0.000000	
38162	-19.048293	5.363851	-3.937076	2.179593	-0.311051	-2.060449	0.466615	0.803861	-0.247298	0.000000000	0.000000000	0.000000	
38163	-18.454594	4.075606	-2.601384	2.254576	-0.504973	-2.162309	0.455669	0.804550	-0.262018	0.000000000	0.000000000	0.000000	
38164	-17.293820	-0.887501	-1.069224	2.183368	-0.695774	-2.303903	0.438565	0.817874	-0.277524	0.000000000	0.000000000	0.000000	
38165	-17.115504	-5.441079	-2.070523	1.829749	-0.846150	-2.538664	0.421753	0.817054	-0.292445	0.000000000	0.000000000	0.000000	
38166	-17.209553	-5.107435	-1.946905	1.565971	-1.109153	-2.564710	0.397756	0.824229	-0.308874	0.000000000	0.000000000	0.000000	
38167	-14.967788	-3.715499	-3.186204	1.287430	-1.253013	-2.543004	0.379604	0.831796	-0.320940	0.000000000	0.000000000	0.000000	
38168	-12.449447	-2.395847	-4.440770	0.748838	-1.268010	-2.448260	0.360832	0.840536	-0.329558	0.000000000	0.000000000	0.000000	
38169	-10.323979	-1.827558	-5.295420	0.223505	-1.150944	-2.328057	0.339141	0.852348	-0.335937	0.000000000	0.000000000	0.000000	
38170	-8.230533	-1.636428	-5.460845	-0.260339	-0.900579	-2.203569	0.325779	0.854720	-0.338057	0.000000000	0.000000000	0.000000	
38171	-6.975572	-1.699566	-4.436117	-0.566498	-0.730670	-1.980127	0.306967	0.870094	-0.334083	0.000000000	0.000000000	0.000000	
38172	-6.100333	-2.131035	-3.165651	-0.698818	-0.647432	-1.648755	0.296984	0.875040	-0.333465	0.000000000	0.000000000	0.000000	
38173	-5.433499	-3.144761	-2.195977	-0.696197	-0.632161	-1.295289	0.278424	0.891067	-0.332160	0.000000000	0.000000000	0.000000	
38174	-4.147676	-4.431504	-1.350765	-0.624026	-0.580592	-0.974614	0.276452	0.896002	-0.323701	0.000000000	0.000000000	0.000000	
38175	-1.838738	-7.149808	-0.701226	-0.370792	-0.519946	-0.671914	0.271180	0.900475	-0.323479	0.000000000	0.000000000	0.000000	
38176	-0.719679	-8.256015	-3.428143	-0.236181	-0.296534	-0.412581	0.263534	0.910832	-0.321262	0.000000000	0.000000000	0.000000	
38177	-0.799708	-4.736823	-4.091002	-0.333908	-0.157616	0.078280	0.266700	0.907386	-0.324022	0.000000000	0.000000000	0.000000	
38178	-0.893743	-0.521471	-3.237138	-0.177698	-0.135841	0.634691	0.265683	0.917211	-0.320481	0.000000000	0.000000000	0.000000	
38179	-1.366241	0.983644	-1.824031	0.016568	-0.190946	1.173384	0.281963	0.910701	-0.320598	0.000000000	0.000000000	0.000000	
38180	-1.729206	1.109718	-0.585570	0.104222	-0.239847	1.606289	0.290118	0.911586	-0.323883	0.000000000	0.000000000	0.000000	
38181	-1.914822	1.553594	0.201153	0.077027	-0.228144	1.897555	0.300522	0.909543	-0.326764	0.000000000	0.000000000	0.000000	
38182	-2.172224	1.942280	0.713694	-0.061540	-0.153137	2.146910	0.316289	0.899828	-0.332805	0.000000000	0.000000000	0.000000	
38183	-2.445071	1.470702	0.658323	-0.228020	-0.096406	2.348882	0.334026	0.905892	-0.327767	0.000000000	0.000000000	0.000000	
38184	-2.709729	0.503259	0.495324	-0.432613	0.001472	2.541924	0.353293	0.893764	-0.326759	0.000000000	0.000000000	0.000000	
38185	-3.155779	-0.520966	0.330197	-0.604576	0.093376	2.694891	0.369285	0.895696	-0.325033	0.000000000	0.000000000	0.000000	
38186	-3.434842	-1.063108	0.125157	-0.741776	0.169786	2.878734	0.391452	0.887981	-0.317831	0.000000000	0.000000000	0.000000	
38187	-3.817918	-0.834125	-0.034577	-0.866067	0.230163	3.108055	0.414870	0.877179	-0.312829	0.000000000	0.000000000	0.000000	
38188	-4.313430	-0.389019	0.013402	-0.952184	0.256619	3.339126	0.439094	0.873542	-0.304042	0.000000000	0.000000000	0.000000	
38189	-4.881178	-0.017271	-0.003707	-1.041963	0.274140	3.581162	0.463019	0.857678	-0.301951	0.000000000	0.000000000	0.000000	
38190	-5.449237	-0.154090	-0.015359	-1.153633	0.316120	3.794147	0.489454	0.850407	-0.288869	0.000000000	0.000000000	0.000000	
38191	-6.030984	-0.162350	0.030490	-1.204988	0.341408	4.021752	0.519568	0.832757	-0.281319	0.000000000	0.000000000	0.000000	
38192	-6.518284	-0.342117	-0.016963	-1.256449	0.367447	4.232928	0.544462	0.818307	-0.274882	0.000000000	0.000000000	0.000000	
38193	-7.284524	-0.535607	-0.040199	-1.298920	0.395088	4.415002	0.574743	0.805608	-0.264785	0.000000000	0.000000000	0.000000	
38194	-8.520299	-0.829095	-0.258991	-1.348399	0.487322	4.566436	0.600667	0.778390	-0.261614	0.000000000	0.000000000	0.000000	
38195	-9.711228	-1.232226	-0.521535	-1.385351	0.568287	4.688637	0.632641	0.765259	-0.244443	0.000000000	0.000000000	0.000000	
38196	-10.410130	-1.672942	-0.725085	-1.435510	0.608117	4.799549	0.664045	0.741592	-0.236133	0.000000000	0.000000000	0.000000	
38197	-10.903685	-2.209894	-0.904434	-1.417969	0.643811	4.919632	0.691493	0.719999	-0.224302	0.000000000	0.000000000	0.000000	
38198	-11.420675	-2.794872	-1.034634	-1.371287	0.649412	5.056110	0.722893	0.691168	-0.213702	0.000000000	0.000000000	0.000000	
38199	-12.212684	-3.108083	-0.997660	-1.277153	0.661779	5.165319	0.748546	0.656908	-0.207982	0.000000000	0.000000000	0.000000	
38200	-13.067530	-3.255697	-1.059461	-1.165245	0.645519	5.234255	0.781903	0.633526	-0.190708	0.000000000	0.000000000	0.000000	
38201	-13.839917	-3.313767	-0.984612	-1.043503	0.602707	5.298496	0.806696	0.594007	-0.189722	0.000000000	0.000000000	0.000000	
38202	-14.552261	-3.291082	-0.873510	-0.859813	0.536609	5.355402	0.832135	0.560700	-0.178517	0.000000000	0.000000000	0.000000	
38203	-15.106073	-3.387281	-0.895698	-0.704690	0.464124	5.389385	0.856296	0.521395	-0.176495	0.000000000	0.000000000	0.000000	
38204	-15.538637	-3.141901	-0.990569	-0.547910	0.392339	5.403161	0.873973	0.484120	-0.173510	0.000000000	0.000000000	0.000000	
38205	-16.062556	-2.902919	-1.158914	-0.488086	0.315883	5.420459	0.900926	0.446940	-0.164758	0.000000000	0.000000000	0.000000	
38206	-16.264650	-2.963816	-1.590226	-0.508914	0.262247	5.386535	0.913237	0.404464	-0.171731	0.000000000	0.000000000	0.000000	
38207	-16.434840	-3.193280	-2.169553	-0.637775	0.247055	5.286862	0.935592	0.367210	-0.156270	0.000000000	0.000000000	0.000000	
38208	-16.611492	-3.547460	-2.664741	-0.839155	0.255352	5.109571	0.946401	0.323401	-0.160510	0.000000000	0.000000000	0.000000	
38209	-16.455322	-3.822227	-3.039577	-1.077548	0.275774	4.848115	0.956302	0.290108	-0.152754	0.000000000	0.000000000	0.000000	
38210	-16.163515	-4.107835	-2.940311	-1.311353	0.315707	4.551072	0.969896	0.248861	-0.148119	0.000000000	0.000000000	0.000000	
38211	-15.547737	-4.839441	-2.350158	-1.442408	0.428738	4.195989	0.974913	0.217497	-0.142796	0.000000000	0.000000000	0.000000	
38212	-14.759548	-6.279081	-2.663647	-1.511173	0.582260	3.826649	0.990299	0.185052	-0.123054	0.000000000	0.000000000	0.000000	
38213	-13.946274	-7.529791	-2.347788	-1.361635	0.577562	3.455193	0.985573	0.155658	-0.131042	0.000000000	0.000000000	0.000000	
38214	-12.572002	-8.833048	-2.251513	-1.042745	0.533688	3.027057	0.991325	0.131310	-0.118583	0.000000000	0.000000000	0.000000	
38215	-11.595937	-10.229149	-2.377931	-0.680420	0.469308	2.555243	0.993379	0.106581	-0.116263	0.000000000	0.000000000	0.000000	
38216	-10.657060	-11.026313	-2.444137	-0.247288	0.397488	2.017632	0.990237	0.094105	-0.114942	0.000000000	0.000000000	0.000000	
38217	-10.181794	-10.974821	-2.142089	0.174069	0.303159	1.379430	1.000024	0.077464	-0.107229	0.000000000	0.000000000	0.000000	
38218	-10.176272	-9.899261	-1.631214	0.468635	0.150625	0.724311	0.991992	0.071187	-0.117472	0.000000000	0.000000000	0.000000	
38219	-10.270512	-8.154913	-1.123387	0.562377	0.023534	0.101728	0.996929	0.066856	-0.102958	0.000000000	0.000000000	0.000000	
38220	-10.057990	-6.728954	-0.957196	0.515880	-0.084634	-0.444322	0.997077	0.068316	-0.111806	0.000000000	0.000000000	0.000000	
38221	-9.691492	-5.983983	-1.114450	0.375149	-0.151346	-0.904418	0.990249	0.080092	-0.114373	0.000000000	0.000000000	0.000000	
38222	-9.241524	-6.102152	-1.466128	0.224261	-0.194438	-1.271125	0.994100	0.087898	-0.115375	0.000000000	0.000000000	0.000000	
38223	-8.825150	-6.601679	-1.553128	0.047630	-0.201377	-1.574632	0.988160	0.100277	-0.119368	0.000000000	0.000000000	0.000000	
38224	-8.728161	-7.083244	-1.349907	-0.147099	-0.203472	-1.865260	0.995117	0.111486	-0.106381	0.000000000	0.000000000	0.000000	
38225	-8.834653	-7.305757	-1.238963	-0.271251	-0.188606	-2.145662	0.986555	0.129623	-0.123550	0.000000000	0.000000000	0.000000	
38226	-8.904398	-6.952220	-1.581381	-0.369127	-0.117833	-2.367524	0.984792	0.155047	-0.123440	0.000000000	0.000000000	0.000000	
38227	-8.629556	-5.868261	-2.382863	-0.418975	-0.057344	-2.474572	0.984071	0.173863	-0.124329	0.000000000	0.000000000	0.000000	
38228	-8.033404	-4.626943	-3.281390	-0.381663	0.055404	-2.449946	0.976022	0.194742	-0.122158	0.000000000	0.000000000	0.000000	
38229	-7.479732	-0.073914	-5.918514	-0.481974	0.264119	-2.228682	0.979922	0.211185	-0.113653	0.000000000	0.000000000	0.000000	
38230	-9.210874	9.020511	-2.913251	-0.462455	0.182922	-1.621384	0.971225	0.228719	-0.126268	0.000000000	0.000000000	0.000000	
38231	-11.088560	14.083281	-0.989048	-0.337498	-0.087068	-0.904011	0.971458	0.238926	-0.116082	0.000000000	0.000000000	0.000000	
38232	-13.114171	13.412239	-1.188781	-0.331378	-0.262014	-0.603317	0.970089	0.243029	-0.124755	0.000000000	0.000000000	0.000000	
38233	-14.922853	9.311145	0.132680	-0.531401	-0.373740	-0.681892	0.970105	0.250020	-0.120209	0.000000000	0.000000000	0.000000	
38234	-15.608762	-0.002791	-0.561445	-0.636354	-0.148788	-1.189306	0.975233	0.257188	-0.118587	0.000000000	0.000000000	0.000000	
38235	-17.319683	-6.489900	-0.857694	-0.650402	0.113108	-1.806342	0.961129	0.275591	-0.121859	0.000000000	0.000000000	0.000000	
38236	-17.856262	-6.582346	-0.054805	-0.499135	0.303662	-2.156811	0.961679	0.292075	-0.108987	0.000000000	0.000000000	0.000000	
38237	-15.324956	-3.072407	-0.084502	-0.433646	0.334828	-2.182960	0.949981	0.311103	-0.122852	0.000000000	0.000000000	0.000000	
38238	-12.037118	-0.476020	-0.536391	-0.379061	0.378039	-2.063929	0.951387	0.329250	-0.105239	0.000000000	0.000000000	0.000000	
38239	-10.026177	-1.119079	-0.530761	-0.235350	0.486928	-1.884883	0.949458	0.344490	-0.100824	0.000000000	0.000000000	0.000000	
38240	-9.196506	-3.248686	-1.204951	0.154436	0.603342	-1.852606	0.937297	0.360582	-0.099686	0.000000000	0.000000000	0.000000	
38241	-7.954524	-4.114295	-3.561091	0.309467	0.662042	-1.779313	0.938363	0.374499	-0.091875	0.000000000	0.000000000	0.000000	
38242	-7.671587	-2.153212	-4.840957	0.431541	0.709722	-1.553941	0.926825	0.388612	-0.103037	0.000000000	0.000000000	0.000000	
38243	-8.081652	-1.716357	-4.328102	0.610045	0.694557	-1.373784	0.929066	0.400167	-0.080801	0.000000000	0.000000000	0.000000	
38244	-9.097973	-2.857787	-3.207332	0.672657	0.622292	-1.273795	0.924784	0.407202	-0.087100	0.000000000	0.000000000	0.000000	
38245	-9.798018	-1.549066	-2.642437	0.487597	0.463089	-1.133167	0.918595	0.424797	-0.079584	0.000000000	0.000000000	0.000000	
38246	-10.491541	0.526292	-2.460119	0.310352	0.370494	-0.974204	0.919556	0.427651	-0.077656	0.000000000	0.000000000	0.000000	
38247	-10.863087	-0.085895	-2.854899	0.208890	0.272179	-0.988132	0.906680	0.433911	-0.083245	0.000000000	0.000000000	0.000000	
38248	-10.698675	-0.799237	-3.336120	0.047061	0.203839	-1.036910	0.912286	0.446179	-0.067388	0.000000000	0.000000000	0.000000	
38249	-9.684296	0.647045	-3.664112	0.006287	0.151255	-1.018672	0.904973	0.447792	-0.084179	0.000000000	0.000000000	0.000000	
38250	-9.249614	0.347523	-3.337852	0.070323	0.192786	-1.077869	0.900803	0.463956	-0.071043	0.000000000	0.000000000	0.000000	
38251	-9.935345	-1.106355	-2.050426	0.043058	0.189882	-1.112968	0.897041	0.457119	-0.079830	0.000000000	0.000000000	0.000000	
38252	-9.724786	-1.194585	-2.491858	-0.004452	0.239017	-1.154008	0.889360	0.479439	-0.074020	0.000000000	0.000000000	0.000000	
38253	-10.212828	-0.749734	-2.410350	0.026840	0.199639	-1.072760	0.891642	0.485457	-0.071084	0.000000000	0.000000000	0.000000	
38254	-10.072480	-1.538089	-2.395637	0.189729	0.152568	-1.005879	0.881900	0.489259	-0.086680	0.000000000	0.000000000	0.000000	
38255	-9.551041	-2.879407	-2.665678	0.246111	0.094826	-0.990340	0.879437	0.505981	-0.070764	0.000000000	0.000000000	0.000000	
38256	-9.176396	-2.046212	-2.467310	0.083554	0.078182	-0.927965	0.875730	0.506608	-0.076613	0.000000000	0.000000000	0.000000	
38257	-8.899691	-1.259252	-2.790194	0.076447	0.062497	-0.852514	0.869246	0.532815	-0.065109	0.000000000	0.000000000	0.000000	
38258	-9.413413	-1.674093	-2.326471	0.105432	0.003292	-0.846016	0.869803	0.521748	-0.073771	0.000000000	0.000000000	0.000000	
38259	-9.356492	-1.805376	-2.353093	0.093731	0.030603	-0.851405	0.858951	0.525639	-0.082590	0.000000000	0.000000000	0.000000	
38260	-9.668986	-1.816501	-2.345439	0.069975	0.027292	-0.846775	0.860187	0.536437	-0.067519	0.000000000	0.000000000	0.000000	
38261	-9.631606	-1.823780	-2.686282	0.067038	-0.006090	-0.824991	0.856714	0.538230	-0.078589	0.000000000	0.000000000	0.000000	
38262	-9.330448	-1.533585	-2.651484	0.086970	-0.012854	-0.840682	0.851745	0.551092	-0.069248	0.000000000	0.000000000	0.000000	
38263	-9.145993	-1.376991	-2.584220	0.103629	-0.020875	-0.797866	0.848917	0.541557	-0.083072	0.000000000	0.000000000	0.000000	
38264	-9.469630	-0.876883	-2.274894	0.088957	-0.033406	-0.793374	0.840533	0.555237	-0.083856	0.000000000	0.000000000	0.000000	
38265	-9.199895	-0.480589	-2.035646	0.160432	-0.035667	-0.766978	0.841401	0.565293	-0.079133	0.000000000	0.000000000	0.000000	
38266	-8.888137	-1.570720	-2.294591	0.181403	-0.052222	-0.761378	0.835167	0.562509	-0.089682	0.000000000	0.000000000	0.000000	
38267	-9.416868	-1.634461	-2.188091	0.130150	-0.047308	-0.782244	0.831229	0.575240	-0.077196	0.000000000	0.000000000	0.000000	
38268	-9.372356	-1.187276	-2.310240	0.167508	-0.055747	-0.782336	0.828258	0.574109	-0.091315	0.000000000	0.000000000	0.000000	
38269	-9.007813	-1.844810	-2.314448	0.176676	-0.048787	-0.794142	0.818097	0.586949	-0.091530	0.000000000	0.000000000	0.000000	
38270	-8.963157	-1.978196	-2.376911	0.110712	-0.061982	-0.797014	0.819613	0.587675	-0.089566	0.000000000	0.000000000	0.000000	
38271	-9.020569	-1.083935	-2.204926	0.125168	-0.108161	-0.759906	0.813176	0.585736	-0.092214	0.000000000	0.000000000	0.000000	
