Packet number,Gyroscope X (deg/s),Gyroscope Y (deg/s),Gyroscope Z (deg/s),Accelerometer X (g),Accelerometer Y (g),Accelerometer Z (g),Magnetometer X (G),Magnetometer Y (G),Magnetometer Z (G)
115,2.1875,-2,10.125,-0.009277344,0.01171875,1.050293,0.3051758,0.01708984,-0.2055664
117,-0.0625,-0.125,-4.375,0.01318359,-0.02294922,0.9536133,0.1806641,-0.0009765625,-0.1645508
118,0,-0.6875,-4.5625,0.02099609,-0.03466797,0.9614258,0.1806641,-0.0009765625,-0.1645508
120,0.5,-1.4375,-4.875,0.04443359,-0.03466797,0.9726563,0.1806641,-0.0009765625,-0.1645508
121,0.9375,-1.8125,-5.125,0.04443359,-0.03076172,0.9648438,0.1831055,-0.0009765625,-0.1674805
123,1.3125,-2,-5.375,0.05615234,-0.02685547,0.96875,0.1806641,-0.0009765625,-0.1630859
124,1.375,-2.1875,-5.5,0.04833984,-0.03076172,0.9726563,0.1806641,-0.0009765625,-0.1630859
126,2.0625,-2.8125,-5.9375,0.04833984,-0.03857422,0.9882813,0.1791992,-0.001953125,-0.1660156
127,1.875,-2.75,-6.1875,0.04833984,-0.02685547,0.984375,0.1791992,-0.0009765625,-0.1645508
129,2.125,-2.9375,-6.1875,0.04052734,-0.02685547,0.9804688,0.1791992,-0.0009765625,-0.1645508
130,3.125,-2.6875,-6.5625,0.05224609,-0.03076172,0.9804688,0.1816406,-0.0009765625,-0.1660156
132,1.8125,-1.9375,-6.5625,0.04833984,-0.03076172,0.9960938,0.1806641,-0.001953125,-0.1660156
133,3.1875,-0.875,-6.5,0.05224609,-0.03076172,0.9921875,0.1806641,-0.001953125,-0.1660156
135,2.375,0.3125,-6.3125,0.04833984,-0.02685547,1.003906,0.1806641,-0.003417969,-0.1660156
136,2.875,1.375,-6.0625,0.04443359,-0.02294922,1.011719,0.1806641,-0.0009765625,-0.1645508
138,1.75,2.4375,-6.125,0.04052734,-0.02294922,1.015625,0.1806641,-0.0009765625,-0.1645508
139,1.3125,3.4375,-5.9375,0.05224609,-0.02294922,1.015625,0.1816406,0,-0.1660156
141,0.375,4.3125,-5.625,0.04443359,-0.01904297,1.019531,0.1791992,-0.001953125,-0.1660156
142,-0.0625,5.25,-5,0.04833984,-0.02685547,1.015625,0.1791992,-0.001953125,-0.1660156
144,-0.3125,6,-4.3125,0.04833984,-0.03076172,1.019531,0.1806641,0,-0.1660156
145,-0.6875,6.8125,-3.6875,0.05615234,-0.02294922,1.019531,0.1806641,-0.001953125,-0.1645508
147,-0.8125,6.6875,-3.3125,0.04833984,-0.02294922,1.007813,0.1806641,-0.001953125,-0.1645508
148,-1.25,5.875,-2.75,0.04833984,-0.02294922,1,0.1806641,0,-0.1630859
150,-1.6875,4.6875,-2.125,0.04052734,-0.02685547,1.007813,0.1791992,-0.0009765625,-0.1645508
151,-2.1875,3.625,-1.75,0.04833984,-0.01904297,1.011719,0.1791992,-0.0009765625,-0.1645508
153,-2.5625,3.0625,-1.5625,0.03662109,-0.01123047,1.015625,0.1806641,-0.0009765625,-0.1660156
154,-2.4375,2.4375,-1.6875,0.02880859,-0.01123047,1.023438,0.1806641,0,-0.1645508
156,-2.125,2.125,-1.875,0.02490234,-0.007324219,1.019531,0.1806641,0,-0.1645508
157,-3.4375,1.9375,-1.8125,0.02099609,0,1.019531,0.1806641,0,-0.1630859
159,-2.5625,1.5625,-2.0625,0.009277344,-0.007324219,1.019531,0.1816406,-0.0009765625,-0.1645508
160,-3.375,1.625,-2.375,0.009277344,-0.007324219,1.03125,0.1816406,-0.0009765625,-0.1645508
162,-3.3125,2.4375,-2.625,0.005371094,-0.003417969,1.007813,0.1791992,-0.0009765625,-0.1645508
163,-3.875,3,-2.625,0.001464844,-0.01123047,1.015625,0.1816406,-0.0009765625,-0.1630859
165,-4.125,3.5625,-2.9375,0.009277344,-0.007324219,1.019531,0.1816406,-0.0009765625,-0.1630859
166,-4.8125,4.375,-2.8125,0.009277344,-0.007324219,1.003906,0.1791992,0,-0.1660156
168,-4.875,4.625,-3.1875,0.009277344,-0.01123047,0.9960938,0.1816406,-0.0009765625,-0.1660156
169,-5.4375,4.6875,-3.1875,0.01708984,-0.01123047,0.9960938,0.1816406,-0.0009765625,-0.1660156
171,-5.1875,4.6875,-3.125,0.02099609,-0.01513672,0.9921875,0.1816406,0.0009765625,-0.1645508
172,-4.9375,4.5625,-3.125,0.01708984,-0.01513672,1,0.1816406,0.0009765625,-0.1645508
174,-4.0625,4.8125,-2.875,0.02099609,-0.01513672,1.003906,0.1816406,0.0009765625,-0.1645508
175,-3.8125,5.375,-2.4375,0.02880859,-0.01904297,1.015625,0.1816406,0,-0.1645508
177,-3.125,5.8125,-1.8125,0.03271484,-0.02294922,1.019531,0.1816406,0,-0.1621094
178,-3.375,6.4375,-1.25,0.04833984,-0.02685547,1,0.1816406,0,-0.1621094
180,-4.0625,5.5,-0.6875,0.04833984,-0.03857422,0.9882813,0.1831055,0,-0.1630859
181,-4.75,3.875,-0.0625,0.05224609,-0.04248047,0.9882813,0.1831055,-0.001953125,-0.1645508
183,-5.3125,2.4375,0.5,0.04052734,-0.04248047,0.9726563,0.1831055,-0.001953125,-0.1645508
184,-5.3125,0.5,1.0625,0.04443359,-0.03857422,0.9726563,0.1831055,0.0009765625,-0.1645508
186,-4.9375,-1.25,1.625,0.02880859,-0.04638672,0.9648438,0.1816406,0,-0.1645508
187,-3.6875,-2.625,1.9375,0.02099609,-0.04248047,0.9614258,0.1816406,0,-0.1645508
189,-3.5625,-3.3125,1.9375,0.02099609,-0.03466797,0.9648438,0.1816406,0,-0.1645508
190,-2.3125,-3.5,1.9375,0.009277344,-0.03076172,0.9614258,0.1806641,-0.0009765625,-0.1645508
192,-1.5,-3.4375,2.1875,0.005371094,-0.02685547,0.9648438,0.1806641,-0.0009765625,-0.1645508
193,-0.75,-3.375,2.0625,-0.001464844,-0.02685547,0.9765625,0.1806641,0,-0.1630859
195,0.375,-2.5625,1.875,-0.001464844,-0.01904297,0.9765625,0.1816406,0,-0.1660156
196,0.9375,-1.4375,1.5625,-0.005371094,-0.01513672,0.9882813,0.1816406,0,-0.1660156
198,1.25,-0.375,1.25,-0.001464844,-0.01123047,0.9882813,0.1831055,0,-0.1645508
199,1.5,0.0625,0.375,0.005371094,-0.01123047,0.984375,0.1806641,0.0009765625,-0.1645508
201,1.75,0.625,0.0625,0.005371094,-0.01904297,0.984375,0.1806641,0.0009765625,-0.1645508
202,2,0.25,-0.3125,0.009277344,-0.01513672,0.9882813,0.1816406,0.0009765625,-0.1630859
204,2.4375,0.375,-0.4375,0.01318359,-0.007324219,0.9921875,0.1816406,-0.0009765625,-0.1630859
205,3.0625,0.375,-0.5,0.02099609,-0.01904297,0.9921875,0.1816406,-0.0009765625,-0.1630859
207,2.125,0.25,-0.625,0.01708984,-0.01513672,1.003906,0.1831055,0,-0.1645508
208,2.5,0.125,-0.6875,0.02490234,-0.01904297,1,0.1806641,0,-0.1630859
210,1.75,-0.375,-0.625,0.03271484,-0.01904297,0.984375,0.1806641,0,-0.1630859
212,1,-0.9375,-0.5625,0.03271484,-0.02294922,0.9921875,0.1806641,0,-0.1660156
214,0.25,-1.5,-0.75,0.02490234,-0.01904297,0.9804688,0.1806641,-0.0009765625,-0.1645508
215,0.25,-1.6875,-0.75,0.01708984,-0.01904297,0.9882813,0.1806641,-0.0009765625,-0.1645508
217,0.375,-1.6875,-0.6875,0.01708984,-0.01904297,0.984375,0.1831055,-0.0009765625,-0.1660156
218,0.3125,-1.75,-0.625,0.009277344,-0.02294922,0.9882813,0.1806641,0,-0.1645508
220,0.75,-1.8125,-1.0625,0.01318359,-0.02294922,0.984375,0.1806641,0,-0.1645508
221,0.3125,-2.1875,-1.0625,0.001464844,-0.02294922,0.9804688,0.1831055,-0.0009765625,-0.1645508
223,0.4375,-2.125,-0.875,0.005371094,-0.03466797,0.9765625,0.1816406,0,-0.1645508
224,0.1875,-1.6875,-0.625,0.009277344,-0.03076172,0.9882813,0.1816406,0,-0.1645508
226,0.8125,-1.4375,-0.5,0.01708984,-0.03466797,0.9804688,0.1816406,0.0009765625,-0.1674805
227,0,-1.25,-0.4375,0.01708984,-0.03857422,0.9804688,0.1816406,-0.0009765625,-0.1645508
229,-0.0625,-1.8125,-0.0625,0.02490234,-0.03466797,0.9726563,0.1816406,-0.0009765625,-0.1645508
230,-0.5625,-2.25,0.0625,0.02490234,-0.02685547,0.9726563,0.1806641,-0.0009765625,-0.1621094
232,-0.75,-2.8125,0.125,0.01708984,-0.02685547,0.984375,0.1816406,0.0009765625,-0.1630859
233,-0.25,-3.0625,-0.0625,0.02490234,-0.03076172,0.984375,0.1816406,0.0009765625,-0.1630859
235,0,-2.9375,0,0.02099609,-0.02685547,0.9921875,0.1816406,0,-0.1630859
236,1.25,-2.875,-0.1875,0.02099609,-0.02294922,1.007813,0.1806641,-0.0009765625,-0.1645508
238,1.3125,-2.5625,-0.5625,0.02490234,-0.02294922,1,0.1806641,-0.0009765625,-0.1645508
239,1.875,-1.5,-1.0625,0.01708984,-0.01904297,1.003906,0.1816406,0,-0.1645508
241,1,-0.8125,-1.1875,0.01708984,-0.01904297,1.003906,0.1816406,0,-0.1645508
242,1.25,-0.25,-1.5,0.01318359,-0.02294922,0.9921875,0.1816406,0,-0.1645508
244,0.875,0.125,-1.5,0.001464844,-0.01904297,1,0.1806641,0,-0.1621094
245,1.0625,0.5625,-1.8125,0.005371094,-0.03076172,1,0.1816406,0.0009765625,-0.1660156
247,0.9375,0.8125,-1.75,-0.005371094,-0.02294922,0.984375,0.1816406,0.0009765625,-0.1660156
248,0.4375,1.0625,-2.125,0.005371094,-0.02294922,0.9804688,0.1806641,-0.0009765625,-0.1645508
250,0.375,1.25,-2.25,0.001464844,-0.03466797,0.9765625,0.1806641,-0.0009765625,-0.1630859
251,0.6875,1.125,-2.25,0.005371094,-0.03466797,0.9765625,0.1806641,-0.0009765625,-0.1630859
253,0.5,1.375,-1.9375,0.01318359,-0.02685547,0.9765625,0.1816406,0,-0.1621094
254,0.5625,1.6875,-1.375,0.01318359,-0.03466797,0.9960938,0.1806641,-0.0009765625,-0.1660156
256,1.125,2.5625,-0.8125,0.02490234,-0.03466797,0.9882813,0.1806641,-0.0009765625,-0.1660156
257,0.5625,2.8125,-0.1875,0.02490234,-0.03466797,0.9960938,0.1831055,0.0009765625,-0.1630859
259,0,2.9375,0.4375,0.03662109,-0.03857422,1.003906,0.1816406,-0.0009765625,-0.1645508
260,-0.625,2.6875,0.5,0.04443359,-0.03076172,1.007813,0.1816406,-0.0009765625,-0.1645508
262,-1.1875,2.1875,0.8125,0.04833984,-0.03466797,0.9960938,0.1806641,0.0009765625,-0.1630859
263,-2,1.625,1.1875,0.04052734,-0.03466797,1.003906,0.1816406,-0.0009765625,-0.1645508
265,-2.1875,0.9375,1.1875,0.04052734,-0.02294922,1.003906,0.1816406,-0.0009765625,-0.1645508
266,-2.1875,1,1.125,0.04052734,-0.02685547,1,0.1806641,0,-0.1645508
268,-1.6875,1.3125,1.3125,0.03662109,-0.02685547,0.9960938,0.1816406,-0.0009765625,-0.1630859
269,-1.75,1.875,1.6875,0.03662109,-0.02685547,0.9921875,0.1816406,-0.0009765625,-0.1630859
271,-1.5625,2.0625,1.75,0.02490234,-0.03076172,0.9882813,0.1806641,0,-0.1645508
272,-0.875,2.3125,1.1875,0.02880859,-0.01904297,0.9726563,0.1816406,0.0009765625,-0.1660156
274,-1.6875,2.625,1,0.01708984,-0.01513672,0.9648438,0.1816406,0.0009765625,-0.1660156
275,-0.375,1.875,0.5,0.001464844,-0.01904297,0.96875,0.1816406,0,-0.1660156
277,-0.375,1.3125,0.4375,-0.01318359,-0.01904297,0.949707,0.1806641,0.0009765625,-0.1645508
278,0.875,0.8125,0,-0.009277344,-0.01513672,0.9536133,0.1806641,0.0009765625,-0.1645508
280,1.75,1.125,-0.3125,-0.009277344,-0.007324219,0.949707,0.1806641,0,-0.1645508
281,2.0625,1.3125,-0.5,-0.009277344,-0.01123047,0.9536133,0.1816406,0,-0.1630859
283,2.625,2.125,-0.125,-0.01318359,-0.01123047,0.96875,0.1816406,0,-0.1630859
284,2.8125,1.8125,-0.4375,-0.009277344,-0.01513672,0.9765625,0.1816406,0,-0.1630859
286,2.875,1.75,-0.75,-0.001464844,-0.01123047,0.9765625,0.1816406,0,-0.1645508
287,2.5625,1,-1.125,-0.001464844,-0.007324219,0.9765625,0.1816406,0,-0.1645508
289,2.5,0.875,-1.25,0.001464844,-0.01513672,0.984375,0.1816406,0,-0.1645508
290,2.5625,0.625,-1.25,0.01708984,-0.02294922,0.9921875,0.1816406,-0.0009765625,-0.1645508
292,3.125,1,-0.75,0.02880859,-0.01123047,1,0.1816406,-0.0009765625,-0.1645508
293,2.375,1.375,-0.5625,0.04052734,-0.01904297,0.9960938,0.1816406,0,-0.1674805
295,2.375,1.5,-0.5,0.04052734,-0.02685547,1,0.1806641,0,-0.1660156
296,0.5625,1.375,-0.25,0.04052734,-0.02294922,0.9921875,0.1806641,0,-0.1660156
298,1.75,0.875,0,0.03271484,-0.02685547,0.9921875,0.1806641,-0.0009765625,-0.1630859
299,0.8125,0.8125,0.4375,0.03662109,-0.03076172,1,0.1816406,-0.0009765625,-0.1645508
301,0.875,0.9375,0.1875,0.03662109,-0.02685547,0.9921875,0.1816406,-0.0009765625,-0.1645508
302,0.5,1.0625,0.375,0.02099609,-0.01904297,1,0.1791992,-0.0009765625,-0.1660156
304,-0.25,1.5,0.1875,0.02880859,-0.01904297,1,0.1831055,-0.0009765625,-0.1645508
305,-0.0625,1.8125,0.1875,0.02490234,-0.01904297,0.9882813,0.1831055,-0.0009765625,-0.1645508
307,-0.8125,1.9375,0.0625,0.02099609,-0.01904297,0.9882813,0.1816406,-0.0009765625,-0.1645508
310,-0.75,1.875,0,0.01708984,-0.02294922,0.9765625,0.1806641,0,-0.1630859
312,-0.8125,1,-0.3125,0.01708984,-0.01123047,0.9765625,0.1806641,0,-0.1630859
313,-0.4375,-0.3125,-0.625,0.005371094,-0.01904297,0.9614258,0.1816406,-0.0009765625,-0.1660156
315,0,-0.875,-0.625,0.001464844,-0.02685547,0.9648438,0.1806641,0,-0.1660156
316,1.25,-1.5625,-0.75,-0.001464844,-0.02294922,0.9726563,0.1806641,0,-0.1660156
318,1.6875,-1.9375,-0.8125,-0.001464844,-0.01513672,0.96875,0.1816406,0.0009765625,-0.1645508
319,2,-1.75,-1,0.001464844,-0.01904297,0.9726563,0.1806641,0,-0.1645508
321,3.375,-1.5625,-1.0625,0.01708984,-0.02294922,0.9726563,0.1806641,0,-0.1645508
322,3.125,-1.3125,-1.0625,0.01708984,-0.02294922,0.9726563,0.1791992,0,-0.1630859
324,4.25,-0.8125,-0.8125,0.02099609,-0.01904297,0.9765625,0.1806641,-0.0009765625,-0.1630859
325,4.6875,0,-0.875,0.01708984,-0.01904297,0.9882813,0.1806641,-0.0009765625,-0.1630859
327,6.25,0.625,-0.5625,0.01708984,-0.02294922,0.984375,0.1806641,0,-0.1645508
328,5.5,1.1875,-0.3125,0.01708984,-0.01513672,1.015625,0.1831055,0,-0.1630859
330,6.25,2.0625,0,0.02490234,-0.02294922,1.027344,0.1831055,0,-0.1630859
331,5.4375,2.8125,0.3125,0.02880859,-0.01904297,1.023438,0.1816406,-0.001953125,-0.1645508
333,5,3.375,0.4375,0.02880859,-0.01513672,1.027344,0.1831055,-0.003417969,-0.1645508
334,2.25,3.6875,0.9375,0.02880859,-0.01123047,1.038574,0.1831055,-0.003417969,-0.1645508
336,1.75,4,1.4375,0.03271484,-0.02685547,1.038574,0.1831055,0,-0.1660156
337,-0.3125,3.9375,1.5,0.02880859,-0.02685547,1.04248,0.1816406,-0.0009765625,-0.1630859
339,-1.625,3.75,1.375,0.03662109,-0.02294922,1.019531,0.1816406,-0.0009765625,-0.1630859
340,-3.5,3.25,1.1875,0.02490234,-0.01123047,1.011719,0.1816406,-0.0009765625,-0.1630859
342,-4.0625,2.875,0.9375,0.009277344,-0.01904297,1,0.1816406,-0.0009765625,-0.1660156
343,-3.75,2.125,0.5,0.005371094,-0.01123047,0.984375,0.1816406,-0.0009765625,-0.1660156
345,-3.125,1.5625,0.25,-0.009277344,-0.01513672,0.9726563,0.1816406,0,-0.1645508
346,-2.375,1,-0.125,-0.01708984,-0.01513672,0.9614258,0.1816406,-0.001953125,-0.1645508
348,-1.25,0.625,-0.125,-0.01318359,-0.01123047,0.949707,0.1816406,-0.001953125,-0.1645508
349,-0.4375,0.1875,-0.5625,-0.009277344,-0.02294922,0.9458008,0.1816406,0,-0.1645508
351,0.8125,0.0625,-0.25,0.001464844,-0.02685547,0.949707,0.1816406,-0.001953125,-0.1645508
352,2,0.4375,-0.5,0.01318359,-0.03466797,0.9458008,0.1816406,-0.001953125,-0.1645508
354,3.25,0.5,-0.0625,0.01708984,-0.02685547,0.9379883,0.1816406,-0.0009765625,-0.1621094
355,4.4375,0.25,0,0.01708984,-0.03076172,0.9458008,0.1816406,0,-0.1630859
357,4.4375,-0.625,0.625,0.01708984,-0.03466797,0.9614258,0.1816406,0,-0.1630859
358,6.4375,-1.5625,0.75,0.02490234,-0.03466797,0.9726563,0.1816406,0,-0.1630859
360,6,-2.5,0.625,0.02490234,-0.03076172,0.9726563,0.1831055,-0.0009765625,-0.1645508
361,6.375,-2.875,1,0.02490234,-0.03076172,0.9921875,0.1831055,-0.0009765625,-0.1645508
363,6.0625,-2.9375,0.5625,0.02490234,-0.01513672,1,0.1831055,-0.001953125,-0.1645508
364,5.3125,-2.375,0.625,0.02099609,-0.01513672,1.011719,0.1806641,-0.0009765625,-0.1660156
366,5.25,-1.8125,0.5625,0.02490234,-0.007324219,1.015625,0.1806641,-0.0009765625,-0.1660156
367,4.375,-1.1875,0.8125,0.01708984,-0.007324219,1.015625,0.1831055,-0.0009765625,-0.1660156
369,3.375,-0.375,1.25,0.01708984,-0.007324219,1.035156,0.1816406,-0.001953125,-0.1660156
370,1.875,0.375,1.125,0.01708984,-0.003417969,1.046387,0.1816406,-0.001953125,-0.1660156
372,0.8125,1.25,0.875,0.01708984,-0.007324219,1.050293,0.1816406,-0.001953125,-0.1645508
373,-0.6875,1.625,1.125,0.02490234,-0.007324219,1.04248,0.1816406,-0.0009765625,-0.1630859
375,-2.375,1.4375,0.9375,0.02880859,-0.01123047,1.023438,0.1816406,-0.0009765625,-0.1630859
376,-3.125,0.75,1,0.03271484,-0.01513672,1.007813,0.1816406,-0.001953125,-0.1645508
378,-3.1875,0.1875,1.0625,0.01708984,-0.01123047,1.003906,0.1816406,-0.0009765625,-0.1645508
379,-3.0625,-0.0625,1.125,0.01318359,-0.01513672,0.9960938,0.1816406,-0.0009765625,-0.1645508
381,-2.4375,-0.25,1.1875,0.005371094,-0.007324219,0.9960938,0.1831055,-0.001953125,-0.1645508
382,-1.5625,-0.4375,1.1875,0.005371094,-0.007324219,0.9882813,0.1806641,-0.001953125,-0.1630859
384,-0.1875,-0.3125,0.9375,0.01318359,-0.01123047,0.9882813,0.1806641,-0.001953125,-0.1630859
385,0.625,-0.125,0.875,0.009277344,-0.007324219,0.9921875,0.1831055,-0.001953125,-0.1645508
387,1.3125,0.25,0.6875,0.005371094,-0.01513672,0.9960938,0.1816406,-0.0009765625,-0.1630859
388,1.4375,0.5625,0.5625,0.01318359,-0.01904297,1,0.1816406,-0.0009765625,-0.1630859
390,1.3125,0.8125,0.6875,0.01708984,-0.02294922,0.9921875,0.1806641,0,-0.1645508
391,1.5,0.875,0.25,0.02490234,-0.02294922,1.003906,0.1806641,-0.0009765625,-0.1630859
393,-0.0625,1.1875,0.25,0.02099609,-0.03076172,1.003906,0.1806641,-0.0009765625,-0.1630859
394,0.9375,1.375,0.3125,0.02880859,-0.03076172,1.007813,0.1816406,-0.001953125,-0.1660156
396,-0.125,1.75,0.125,0.02099609,-0.03076172,1.003906,0.1816406,-0.0009765625,-0.1621094
397,-0.25,2,0,0.02099609,-0.02294922,0.9921875,0.1816406,-0.0009765625,-0.1621094
399,-0.5,2.4375,0,0.02490234,-0.02294922,0.9921875,0.1816406,-0.003417969,-0.1630859
400,-0.625,2.875,0.1875,0.02099609,-0.03076172,0.9882813,0.1816406,-0.003417969,-0.1645508
402,-1,3.0625,0.6875,0.009277344,-0.01904297,0.9804688,0.1816406,-0.003417969,-0.1645508
403,-1.125,2.6875,0.5,0.009277344,-0.01513672,0.984375,0.1816406,-0.0009765625,-0.1660156
405,-1.375,2.25,0.75,0.005371094,-0.02294922,0.96875,0.1831055,-0.003417969,-0.1645508
407,-1.125,1.5,0.8125,0.009277344,-0.02685547,0.96875,0.1831055,-0.003417969,-0.1645508
409,-1.0625,1.1875,0.9375,0.009277344,-0.01904297,0.9804688,0.1816406,-0.0009765625,-0.1674805
410,-0.875,0.3125,0.8125,0.01708984,-0.01904297,0.96875,0.1831055,-0.001953125,-0.1674805
412,-0.6875,-0.4375,1.0625,0.009277344,-0.02685547,0.9804688,0.1831055,-0.001953125,-0.1674805
413,0.125,-1.0625,1.1875,0.005371094,-0.02294922,0.9765625,0.1831055,-0.001953125,-0.1660156
415,0.3125,-1.0625,1.5,0.005371094,-0.02685547,0.9921875,0.1806641,-0.0009765625,-0.1630859
416,0.6875,-1,1.4375,0.005371094,-0.01904297,1.003906,0.1806641,-0.0009765625,-0.1630859
418,0.5625,-0.25,1.125,0.009277344,-0.01513672,1.007813,0.1816406,-0.0009765625,-0.1630859
419,0.6875,0.375,1,0.001464844,-0.02294922,1.007813,0.1831055,-0.0009765625,-0.1621094
421,0.3125,0.8125,0.8125,0.001464844,-0.01904297,0.9960938,0.1831055,-0.0009765625,-0.1621094
422,-0.0625,1.0625,0.3125,0.005371094,-0.007324219,0.9960938,0.1816406,-0.0009765625,-0.1645508
424,-0.375,1.5,-0.1875,-0.005371094,-0.01123047,0.9921875,0.1816406,-0.001953125,-0.1660156
425,-0.0625,2.0625,-0.3125,-0.009277344,-0.01513672,0.984375,0.1816406,-0.001953125,-0.1660156
427,-0.1875,2.6875,-1.0625,-0.001464844,-0.01513672,0.984375,0.1816406,-0.0009765625,-0.1645508
428,-0.3125,2.8125,-1.375,0.001464844,-0.01904297,0.9765625,0.1816406,-0.001953125,-0.1630859
430,-0.625,3.0625,-1.3125,0.005371094,-0.01513672,0.96875,0.1816406,-0.001953125,-0.1630859
431,-0.6875,2.875,-1.25,0.01318359,-0.02685547,0.9726563,0.184082,0,-0.1630859
433,-0.8125,2.75,-1,0.02490234,-0.03076172,0.9726563,0.1831055,-0.001953125,-0.1630859
434,-0.9375,2.125,-1,0.02099609,-0.03076172,0.9648438,0.1831055,-0.001953125,-0.1630859
436,-0.6875,1.5625,-0.5,0.02099609,-0.03466797,0.9614258,0.1816406,-0.0009765625,-0.1630859
437,-0.6875,0.9375,-0.125,0.02880859,-0.03466797,0.9614258,0.1831055,-0.0009765625,-0.1630859
439,-0.25,0.5625,-0.3125,0.03662109,-0.02685547,0.9614258,0.1831055,-0.0009765625,-0.1630859
440,-0.125,-0.125,-0.125,0.03662109,-0.03076172,0.9575195,0.1831055,-0.0009765625,-0.1630859
442,0.375,-0.625,0.0625,0.02880859,-0.03076172,0.949707,0.184082,-0.0009765625,-0.1630859
443,1.125,-2,0.375,0.02490234,-0.02685547,0.9575195,0.184082,-0.0009765625,-0.1630859
445,2.1875,-3,0.125,0.02099609,-0.02294922,0.9648438,0.1831055,-0.001953125,-0.1645508
446,2.0625,-3.5625,0.375,0.01708984,-0.02685547,0.9765625,0.1816406,0,-0.1645508
448,3.5625,-3.5625,0.25,0.01708984,-0.01904297,0.9804688,0.1816406,0,-0.1645508
449,3.25,-2.8125,0.4375,0.01318359,-0.01904297,0.9882813,0.1831055,0,-0.1630859
451,3.5625,-1.625,0.5,0.01318359,-0.02294922,0.9804688,0.1806641,-0.001953125,-0.1645508
452,2.8125,-0.6875,0.625,0.02490234,-0.02294922,0.9960938,0.1806641,-0.001953125,-0.1645508
454,2.375,0,0.5625,0.02099609,-0.02294922,1,0.1831055,-0.0009765625,-0.1630859
455,1.625,0,0.5,0.01708984,-0.01513672,0.9960938,0.1831055,-0.001953125,-0.1621094
457,1.25,0.3125,0.6875,0.01318359,-0.01904297,0.9960938,0.1831055,-0.001953125,-0.1621094
458,0.6875,0.625,0.75,0.01708984,-0.02685547,1,0.1816406,-0.001953125,-0.1630859
460,1.0625,0.75,1.125,0.02099609,-0.01904297,1,0.1831055,-0.0009765625,-0.1645508
461,0.6875,0.9375,1.5625,0.02099609,-0.01904297,1.011719,0.1831055,-0.0009765625,-0.1645508
463,0.3125,0.9375,2,0.02880859,-0.01513672,1.003906,0.1831055,-0.001953125,-0.1630859
464,-0.125,1.0625,2.25,0.02880859,-0.02294922,1.003906,0.1816406,-0.001953125,-0.1630859
466,-0.625,0.8125,2.1875,0.02099609,-0.01904297,0.9960938,0.1816406,-0.001953125,-0.1630859
467,-1.1875,0.9375,1.9375,0.02099609,-0.003417969,1.003906,0.1816406,-0.001953125,-0.1645508
469,-1.8125,0.75,1.5625,0.01318359,-0.007324219,1.003906,0.1816406,-0.0009765625,-0.1630859
470,-1.375,0.8125,1.5625,0.005371094,-0.003417969,1.011719,0.1816406,-0.0009765625,-0.1630859
472,-1,0.4375,1.4375,0.001464844,-0.01513672,0.9921875,0.1816406,-0.0009765625,-0.1630859
473,-0.75,0.125,1.375,0.009277344,-0.007324219,0.9960938,0.1831055,-0.003417969,-0.1621094
475,-0.9375,0.1875,0.875,0.005371094,-0.01513672,0.9960938,0.1831055,-0.003417969,-0.1621094
476,-0.1875,0.375,0.625,0.005371094,-0.01513672,0.984375,0.1831055,-0.0009765625,-0.1645508
478,0,0.4375,0.375,0.001464844,-0.01904297,0.9765625,0.1816406,-0.001953125,-0.1630859
479,0.8125,0.75,0.5,-0.001464844,-0.02294922,0.9882813,0.1816406,-0.001953125,-0.1630859
481,1.125,0.9375,0.25,-0.009277344,-0.02685547,0.9765625,0.1816406,-0.003417969,-0.1660156
482,1.0625,1.1875,0.375,-0.001464844,-0.03076172,0.96875,0.1816406,-0.001953125,-0.1630859
484,1.375,1.0625,-0.0625,-0.001464844,-0.02685547,0.96875,0.1816406,-0.001953125,-0.1630859
485,0.75,0.75,0,0.001464844,-0.02685547,0.9648438,0.1816406,-0.001953125,-0.1645508
487,1,0.625,-0.0625,0.005371094,-0.02294922,0.96875,0.1816406,-0.0009765625,-0.1645508
488,0.5625,-0.0625,0.125,0.001464844,-0.03466797,0.96875,0.1816406,-0.0009765625,-0.1645508
490,0.4375,-0.625,0,0.001464844,-0.02685547,0.9614258,0.1816406,-0.003417969,-0.1630859
491,0.9375,-0.75,0.3125,0.009277344,-0.03076172,0.9726563,0.1831055,-0.0009765625,-0.1660156
493,1.5625,-1,0,0.01318359,-0.02294922,0.96875,0.1831055,-0.0009765625,-0.1660156
494,1.5625,-1.0625,0.0625,0.01708984,-0.01904297,0.96875,0.1831055,-0.003417969,-0.1645508
496,2.5,-1.125,0.4375,0.02099609,-0.02294922,0.9726563,0.1816406,-0.001953125,-0.1645508
497,2.625,-0.9375,0.375,0.02490234,-0.02294922,0.984375,0.1816406,-0.001953125,-0.1645508
499,3.1875,-0.4375,0.1875,0.02490234,-0.01513672,1.003906,0.1816406,-0.001953125,-0.1645508
500,3.0625,0.0625,0.5625,0.02880859,-0.01513672,1.011719,0.1816406,-0.0009765625,-0.1630859
502,2.9375,0.75,0.6875,0.02880859,-0.01123047,1.023438,0.1816406,-0.0009765625,-0.1630859
505,2.875,1.1875,0.875,0.03662109,-0.007324219,1.035156,0.1816406,-0.001953125,-0.1621094
507,1.125,1.75,0.3125,0.04052734,-0.01513672,1.019531,0.1816406,-0.0009765625,-0.1674805
508,0.375,1.25,0.75,0.03662109,-0.01513672,1.023438,0.1816406,-0.0009765625,-0.1674805
510,-0.9375,0.875,0.8125,0.02880859,-0.007324219,1.03125,0.1831055,-0.001953125,-0.1645508
511,-1.125,1,0.375,0.02490234,-0.007324219,1.035156,0.1816406,-0.0009765625,-0.1630859
513,-2.0625,1.125,0.1875,0.01708984,-0.007324219,1.027344,0.1816406,-0.0009765625,-0.1630859
514,-2.125,1.6875,0.1875,0.01318359,-0.003417969,1.023438,0.1831055,-0.001953125,-0.1660156
516,-2.75,2,0,0.009277344,-0.007324219,1.007813,0.1831055,-0.001953125,-0.1674805
517,-2.875,2,-0.375,0.01318359,-0.01123047,0.9921875,0.1831055,-0.001953125,-0.1674805
519,-2.375,1.5,-0.4375,0.001464844,-0.01904297,0.9804688,0.184082,-0.001953125,-0.1645508
520,-2,0.9375,-1,-0.005371094,-0.01904297,0.9765625,0.1831055,-0.0009765625,-0.1630859
522,-2.375,0,-1.0625,-0.001464844,-0.01904297,0.96875,0.1831055,-0.0009765625,-0.1630859
523,-0.3125,0,-1.25,-0.005371094,-0.01904297,0.96875,0.1831055,-0.0009765625,-0.1630859
525,-0.375,-0.4375,-1.25,-0.001464844,-0.03076172,0.949707,0.184082,-0.001953125,-0.1630859
526,1.0625,-0.5,-1,-0.001464844,-0.03076172,0.9536133,0.184082,-0.001953125,-0.1630859
528,1.625,-0.625,-0.9375,0.009277344,-0.03466797,0.9575195,0.1831055,-0.001953125,-0.1630859
529,2.3125,-0.4375,-0.5,0.009277344,-0.03857422,0.949707,0.1831055,-0.003417969,-0.1630859
531,3,-0.8125,0,0.01318359,-0.03466797,0.9575195,0.1831055,-0.003417969,-0.1630859
532,2.875,-1.0625,0.625,0.02490234,-0.02685547,0.9614258,0.1831055,-0.0009765625,-0.1645508
534,3.3125,-1.8125,1,0.02099609,-0.03076172,0.96875,0.1816406,-0.001953125,-0.1645508
535,3.5,-2.375,1.0625,0.02490234,-0.02294922,0.9804688,0.1816406,-0.001953125,-0.1645508
537,3.3125,-2.625,1.375,0.02880859,-0.02294922,0.9960938,0.184082,-0.001953125,-0.1630859
538,3.5625,-3,1.4375,0.02880859,-0.02294922,1.007813,0.1816406,-0.0009765625,-0.1645508
540,3.25,-2.5625,1.625,0.03271484,-0.02294922,1.023438,0.1816406,-0.0009765625,-0.1645508
541,2.9375,-1.875,1.625,0.03271484,-0.01513672,1.03125,0.1831055,-0.0009765625,-0.1630859
543,1.8125,-0.8125,2.3125,0.03271484,-0.01123047,1.035156,0.1816406,-0.001953125,-0.1645508
544,1,0.25,1.75,0.02880859,-0.01513672,1.03125,0.1816406,-0.001953125,-0.1645508
546,-0.6875,0.9375,1.25,0.02880859,-0.01123047,1.038574,0.1831055,-0.001953125,-0.1645508
547,-1.1875,1.625,1.125,0.01708984,-0.01513672,1.027344,0.1831055,-0.003417969,-0.1630859
549,-2.1875,2.1875,0.5625,0.005371094,-0.01123047,1.015625,0.1831055,-0.003417969,-0.1630859
550,-2.4375,2.4375,0.3125,0.001464844,-0.007324219,0.9960938,0.184082,-0.0009765625,-0.1645508
552,-2.375,2.5625,0,-0.001464844,-0.01513672,0.9726563,0.1816406,-0.003417969,-0.1674805
553,-1.8125,2.25,-0.3125,-0.005371094,-0.01513672,0.9765625,0.1816406,-0.003417969,-0.1674805
555,-0.6875,2.0625,-0.75,-0.001464844,-0.01904297,0.9614258,0.184082,-0.0009765625,-0.1645508
556,-0.9375,1.4375,-1.5,-0.009277344,-0.01513672,0.9458008,0.1806641,-0.001953125,-0.1630859
558,0.6875,0.5625,-1.5625,-0.001464844,-0.02294922,0.9418945,0.1806641,-0.001953125,-0.1630859
559,1.4375,-0.1875,-1.625,-0.005371094,-0.03076172,0.934082,0.1806641,-0.003417969,-0.1630859
561,2.625,-0.5,-1.5,-0.005371094,-0.03466797,0.9458008,0.1831055,-0.003417969,-0.1645508
562,3.625,-0.9375,-1,-0.001464844,-0.03466797,0.949707,0.1831055,-0.003417969,-0.1645508
564,4.125,-1.1875,-0.9375,0.01318359,-0.02685547,0.9614258,0.1816406,-0.001953125,-0.1645508
565,4.875,-1.375,-0.625,0.02490234,-0.03466797,0.9575195,0.1816406,-0.001953125,-0.1630859
567,4.4375,-1.6875,-0.625,0.02880859,-0.03857422,0.96875,0.1816406,-0.001953125,-0.1630859
568,3.75,-2,-0.125,0.03271484,-0.03466797,0.9804688,0.1831055,-0.001953125,-0.1645508
570,4.3125,-1.8125,0.25,0.02490234,-0.02294922,0.9882813,0.1816406,-0.003417969,-0.1645508
571,3,-1.875,0.3125,0.02490234,-0.01904297,1,0.1816406,-0.003417969,-0.1645508
573,3.0625,-2.0625,0.8125,0.02490234,-0.01904297,1.011719,0.1816406,-0.001953125,-0.1621094
574,2.6875,-1.75,0.4375,0.02099609,-0.01513672,1.015625,0.1831055,-0.0009765625,-0.1645508
576,1.75,-1.75,0.75,0.009277344,-0.003417969,1.015625,0.1831055,-0.0009765625,-0.1645508
577,1.1875,-1.125,0.375,0.01318359,-0.003417969,1.03125,0.1806641,-0.003417969,-0.1645508
579,0.6875,-0.4375,-0.1875,0.005371094,0.00390625,1.023438,0.1816406,-0.001953125,-0.1621094
580,-0.125,0.625,-0.3125,0.005371094,0,1.019531,0.1816406,-0.001953125,-0.1621094
582,-0.3125,1.4375,-0.8125,-0.001464844,0,1.011719,0.1831055,-0.001953125,-0.1621094
583,-0.3125,2.0625,-1,-0.009277344,0.00390625,1.003906,0.1806641,-0.001953125,-0.1660156
585,-0.625,2.6875,-1.5625,-0.01318359,0,1.011719,0.1806641,-0.001953125,-0.1660156
586,-0.5,3.0625,-2.1875,-0.009277344,-0.003417969,1.007813,0.1831055,-0.001953125,-0.1621094
588,-0.125,4,-2.25,-0.005371094,-0.007324219,1.003906,0.1831055,-0.001953125,-0.1630859
589,-0.9375,4.8125,-2.5625,-0.001464844,-0.007324219,0.9921875,0.1831055,-0.001953125,-0.1630859
591,-0.5625,5.125,-3.125,-0.005371094,-0.01123047,0.984375,0.1816406,-0.003417969,-0.1621094
592,-1.75,5,-2.6875,-0.001464844,-0.01904297,0.9804688,0.1816406,-0.003417969,-0.1621094
594,-0.375,4.6875,-3,0.005371094,-0.02685547,0.9726563,0.1816406,-0.003417969,-0.1621094
595,-1.625,4.4375,-2.8125,0.01708984,-0.02685547,0.9614258,0.1816406,-0.0009765625,-0.1630859
597,0,4.125,-2.375,0.01708984,-0.03466797,0.9614258,0.1831055,-0.001953125,-0.1645508
598,-0.3125,4.0625,-2.4375,0.01708984,-0.02294922,0.9614258,0.1831055,-0.001953125,-0.1645508
600,0.5,3,-2.125,0.02099609,-0.02685547,0.9536133,0.1831055,-0.001953125,-0.1621094
602,1.0625,2.25,-1.75,0.009277344,-0.03857422,0.9536133,0.1806641,-0.0009765625,-0.1630859
604,1.8125,0.875,-1.125,0.01318359,-0.03857422,0.9458008,0.1806641,-0.0009765625,-0.1630859
605,1.9375,0,-1.125,0.02099609,-0.02685547,0.949707,0.1816406,-0.001953125,-0.1660156
607,2,-0.5,-0.625,0.01318359,-0.02294922,0.9575195,0.184082,-0.001953125,-0.1630859
608,2.4375,-0.6875,-0.5625,0.01318359,-0.01123047,0.9575195,0.184082,-0.001953125,-0.1630859
610,2.625,-1.25,-0.1875,0.001464844,-0.003417969,0.9726563,0.1816406,-0.001953125,-0.1630859
611,2.125,-1.5625,-0.375,0.009277344,0,0.9726563,0.1816406,-0.003417969,-0.1630859
613,2.75,-1.625,-0.75,0.005371094,0,0.9921875,0.1816406,-0.003417969,-0.1630859
614,2.5625,-1.625,-0.5,0.01318359,0.00390625,1.007813,0.184082,-0.001953125,-0.1660156
616,2.375,-1.375,-0.6875,0.01318359,0.0078125,1.011719,0.1816406,-0.0009765625,-0.1660156
617,3.0625,-0.875,-0.8125,0.02099609,0.01171875,1.007813,0.1816406,-0.0009765625,-0.1660156
619,2.0625,-0.625,-0.75,0.02880859,0.00390625,1.019531,0.1816406,-0.001953125,-0.1660156
620,1.875,0.1875,-0.8125,0.03662109,0.0078125,1.023438,0.1816406,-0.003417969,-0.1660156
622,1.25,0.875,-0.5625,0.04052734,0.0078125,1.035156,0.1816406,-0.003417969,-0.1660156
623,1.125,1.5,-0.5625,0.03271484,0.00390625,1.03125,0.1831055,-0.001953125,-0.1660156
625,0.0625,2.0625,-0.625,0.03271484,0.00390625,1.035156,0.1831055,-0.001953125,-0.1630859
626,0.5,2.8125,-0.6875,0.03271484,-0.003417969,1.027344,0.1831055,-0.001953125,-0.1630859
628,-0.625,3.5,-1.0625,0.04052734,-0.003417969,1.011719,0.1816406,-0.001953125,-0.1630859
629,-0.875,3.6875,-1.125,0.03662109,-0.01123047,1,0.1816406,-0.001953125,-0.1630859
631,-0.875,3.8125,-1.125,0.03662109,-0.01904297,0.9804688,0.1816406,-0.001953125,-0.1630859
632,-0.75,3.8125,-1.1875,0.03271484,-0.01904297,0.96875,0.1831055,-0.001953125,-0.1630859
634,-0.125,4.25,-0.6875,0.02880859,-0.02294922,0.96875,0.1831055,-0.001953125,-0.1621094
635,0,4,-0.5,0.02490234,-0.02294922,0.9614258,0.1831055,-0.001953125,-0.1621094
637,0.8125,3.6875,-0.125,0.02099609,-0.01904297,0.9614258,0.184082,-0.001953125,-0.1630859
638,1.3125,3.1875,0.25,0.02099609,-0.02294922,0.949707,0.184082,-0.001953125,-0.1660156
640,1.8125,2.1875,0.5625,0.01708984,-0.01904297,0.9379883,0.184082,-0.001953125,-0.1660156
641,1.3125,0.5625,0.9375,0.01708984,-0.01904297,0.9418945,0.1831055,-0.001953125,-0.1621094
643,2.5625,-1,1.5,0.01708984,-0.02685547,0.9536133,0.1831055,-0.0009765625,-0.1630859
644,2.5,-1.5625,1.375,0.02099609,-0.01904297,0.9575195,0.1831055,-0.0009765625,-0.1630859
646,3.4375,-2.125,1.125,0.02099609,-0.01513672,0.9765625,0.1816406,-0.003417969,-0.1630859
647,3.4375,-1.9375,1.4375,0.009277344,-0.007324219,0.984375,0.1831055,-0.003417969,-0.1621094
649,4.5,-1.75,1.5,0.01318359,-0.007324219,1,0.1831055,-0.003417969,-0.1621094
650,3.9375,-1.5,1.8125,0.001464844,-0.007324219,1,0.1816406,-0.0009765625,-0.1645508
652,4.125,-1.125,1.9375,0.009277344,-0.003417969,1.011719,0.1831055,-0.001953125,-0.1630859
653,3.875,-0.625,1.875,0.005371094,0,1.011719,0.1831055,-0.001953125,-0.1630859
655,3.6875,-0.1875,2.0625,0.01318359,-0.003417969,1.011719,0.184082,-0.001953125,-0.1621094
656,2.875,-0.25,2.125,0.009277344,-0.007324219,1.019531,0.1831055,-0.003417969,-0.1630859
658,2.25,-0.375,2.3125,0.005371094,-0.003417969,1.023438,0.1831055,-0.003417969,-0.1630859
659,1.5625,-0.625,2.0625,0.005371094,-0.007324219,1.015625,0.1816406,-0.001953125,-0.1645508
661,0.625,-0.75,1.9375,0.001464844,-0.003417969,1.019531,0.1816406,-0.003417969,-0.1645508
662,-0.625,-0.25,2,0.001464844,-0.003417969,1.019531,0.1816406,-0.003417969,-0.1645508
664,-0.5,-0.125,1.875,-0.005371094,-0.003417969,1.019531,0.1816406,-0.001953125,-0.1630859
665,-2.125,0.25,1.25,-0.009277344,0,1.011719,0.1831055,-0.003417969,-0.1630859
667,-2.1875,0.625,0.8125,-0.01318359,0.00390625,1,0.1831055,-0.003417969,-0.1630859
668,-2.5625,0.875,0.0625,-0.01318359,0,0.9882813,0.1831055,-0.003417969,-0.1621094
670,-2.1875,1.5,-0.3125,-0.01318359,0,0.9921875,0.1831055,-0.001953125,-0.1660156
671,-1.875,2.0625,-0.4375,-0.001464844,0,0.9804688,0.1831055,-0.001953125,-0.1660156
673,-0.5625,2.6875,-0.9375,-0.001464844,-0.003417969,0.9804688,0.1831055,-0.004882813,-0.1630859
674,0,2.4375,-0.9375,0.001464844,-0.003417969,0.96875,0.1831055,-0.003417969,-0.1630859
676,0.8125,1.8125,-0.75,-0.001464844,-0.01513672,0.9726563,0.1831055,-0.003417969,-0.1630859
677,1.5625,0.75,-0.5,0.009277344,-0.007324219,0.9726563,0.1831055,-0.001953125,-0.1630859
679,2.3125,-0.0625,-0.25,0.02099609,-0.01904297,0.9726563,0.1831055,-0.001953125,-0.1645508
680,2.75,-0.6875,0.1875,0.02490234,-0.02294922,0.9921875,0.1831055,-0.001953125,-0.1645508
682,3.5625,-0.8125,0.5625,0.02880859,-0.02685547,0.9960938,0.1816406,-0.003417969,-0.1621094
683,3.125,-1.0625,0.9375,0.03271484,-0.01904297,1.003906,0.1831055,-0.003417969,-0.1630859
685,2.5,-1.3125,1.5625,0.03662109,-0.01904297,0.9960938,0.1831055,-0.003417969,-0.1630859
686,1.875,-1.6875,1.9375,0.02880859,-0.01123047,1.003906,0.1831055,-0.003417969,-0.1630859
688,1.5625,-1.5625,2.3125,0.02490234,-0.01123047,1.003906,0.184082,-0.003417969,-0.1645508
689,0.1875,-1.375,2.6875,0.02880859,-0.003417969,1.007813,0.184082,-0.003417969,-0.1645508
691,0.0625,-0.8125,2.5625,0.02099609,0.00390625,1.019531,0.1831055,-0.003417969,-0.1645508
692,0,0,2.375,0.009277344,0.00390625,1.015625,0.1831055,-0.001953125,-0.1630859
694,0.0625,0.5625,2.4375,0.005371094,0.00390625,1.015625,0.1831055,-0.001953125,-0.1630859
695,-0.1875,1,2,-0.001464844,0.0078125,1.011719,0.1831055,-0.003417969,-0.1630859
697,-0.5,1.5625,1.4375,-0.001464844,0.0078125,1.003906,0.1831055,-0.003417969,-0.1630859
700,-0.0625,2.4375,1.0625,-0.001464844,0.0078125,1.003906,0.1831055,-0.003417969,-0.1630859
702,-1.5625,3.25,0.4375,-0.001464844,0.01171875,1,0.1816406,-0.0009765625,-0.1630859
703,-1.4375,3.6875,0.5,0.005371094,0,1,0.1831055,-0.004882813,-0.1630859
705,-2.8125,3.875,0.375,0.005371094,0,0.9921875,0.1831055,-0.004882813,-0.1630859
706,-3,3.6875,0.4375,0.01318359,-0.003417969,0.9765625,0.184082,-0.001953125,-0.1645508
708,-3.75,3.1875,0.6875,0.01708984,0,0.9960938,0.184082,-0.003417969,-0.1630859
709,-2.9375,2.25,0.625,0.02099609,-0.007324219,0.9804688,0.184082,-0.003417969,-0.1630859
711,-3.3125,1,1,0.02099609,-0.01513672,0.9765625,0.1816406,-0.003417969,-0.1645508
712,-2.5,-0.25,0.875,0.02880859,-0.02294922,0.9726563,0.1831055,-0.001953125,-0.1630859
714,-2.0625,-1.25,1.125,0.02490234,-0.01904297,0.9726563,0.1831055,-0.001953125,-0.1630859
715,-1.375,-2,1.375,0.02490234,-0.02294922,0.96875,0.1831055,-0.001953125,-0.1621094
717,-0.4375,-2.5625,1.6875,0.02099609,-0.01904297,0.9575195,0.1831055,-0.004882813,-0.1630859
718,-0.5,-2.8125,1.6875,0.01708984,-0.02294922,0.9648438,0.1831055,-0.004882813,-0.1630859
720,0.1875,-2.6875,2.125,0.01318359,-0.01513672,0.9614258,0.1816406,-0.003417969,-0.1660156
721,0.3125,-2.25,1.8125,0.005371094,-0.01904297,0.9648438,0.1816406,-0.004882813,-0.1660156
723,0.875,-2.25,1.75,0.001464844,-0.02294922,0.9648438,0.1816406,-0.004882813,-0.1660156
724,1.25,-1.8125,1.875,0.001464844,-0.02294922,0.96875,0.1831055,-0.001953125,-0.1645508
726,1.8125,-1.625,1.4375,0.005371094,-0.02685547,0.96875,0.1816406,-0.003417969,-0.1660156
727,2.4375,-1.125,1.625,-0.005371094,-0.02685547,0.9804688,0.1816406,-0.003417969,-0.1660156
729,1.3125,-0.75,1.625,-0.001464844,-0.01904297,0.984375,0.184082,-0.003417969,-0.1674805
730,1.625,-0.25,1.4375,-0.001464844,-0.01904297,0.9882813,0.184082,-0.004882813,-0.1660156
732,1,0,1.5,-0.001464844,-0.01123047,0.9960938,0.184082,-0.004882813,-0.1660156
733,0.6875,0.25,1,-0.001464844,-0.01123047,1.007813,0.1831055,-0.003417969,-0.1645508
735,0.4375,0.4375,0.5625,0.001464844,-0.01123047,1,0.1816406,-0.001953125,-0.1660156
736,0.25,0.4375,-0.125,0.001464844,-0.003417969,0.9960938,0.1816406,-0.001953125,-0.1660156
738,0.0625,0.5625,-0.1875,-0.001464844,-0.007324219,0.9960938,0.1816406,-0.001953125,-0.1630859
739,0,0.8125,-0.625,-0.001464844,-0.01123047,0.9921875,0.1831055,-0.003417969,-0.1621094
741,0.3125,0.0625,-0.6875,-0.001464844,-0.007324219,0.984375,0.1831055,-0.003417969,-0.1621094
742,0,-0.375,-0.6875,0.005371094,-0.01123047,0.984375,0.1816406,-0.001953125,-0.1630859
744,0.625,-0.875,-0.625,0.01708984,-0.01123047,1.003906,0.1831055,-0.003417969,-0.1606445
745,1.0625,-1.25,-0.3125,0.009277344,-0.01123047,0.9960938,0.1831055,-0.003417969,-0.1606445
747,1.75,-1.5625,-0.1875,0.01708984,-0.01123047,1,0.1831055,-0.004882813,-0.1630859
748,1.5,-1.875,0.125,0.005371094,-0.01123047,1.015625,0.1816406,-0.003417969,-0.1630859
750,1.5625,-2.0625,0.625,0.01318359,-0.007324219,0.9960938,0.1816406,-0.003417969,-0.1630859
751,1.25,-2.25,0.875,0.009277344,-0.01513672,1.011719,0.1816406,-0.003417969,-0.1630859
753,1.25,-1.75,1.125,0.01708984,-0.007324219,1.011719,0.1831055,-0.003417969,-0.1630859
754,0.25,-1,1.375,0.005371094,-0.01123047,1.019531,0.1831055,-0.003417969,-0.1630859
756,-0.0625,-0.5625,1.375,0.009277344,-0.01513672,1.007813,0.1816406,-0.003417969,-0.1630859
757,-0.1875,-0.1875,1.1875,0.001464844,-0.007324219,0.9882813,0.1816406,-0.003417969,-0.1621094
759,-0.4375,-0.25,1.1875,-0.009277344,-0.007324219,0.9960938,0.1816406,-0.003417969,-0.1621094
760,-1.375,-0.3125,0.5,-0.009277344,0,0.984375,0.1816406,-0.003417969,-0.1630859
762,-1.375,-0.375,0.3125,-0.009277344,0,0.9882813,0.1831055,-0.001953125,-0.1630859
763,-1,-0.125,-0.0625,-0.005371094,-0.003417969,0.984375,0.1831055,-0.001953125,-0.1630859
765,-0.8125,0.3125,-0.375,0.001464844,-0.01123047,0.9726563,0.1831055,-0.003417969,-0.1645508
766,0.125,0.5,-0.4375,-0.009277344,-0.007324219,0.9804688,0.1816406,-0.003417969,-0.1630859
768,-0.3125,0.5625,-0.875,0.005371094,-0.007324219,0.9726563,0.1816406,-0.003417969,-0.1630859
769,0.1875,0.625,-1,0.01708984,-0.01904297,0.9648438,0.1816406,-0.003417969,-0.1630859
771,0.3125,0.25,-0.9375,0.02099609,-0.01904297,0.96875,0.1816406,-0.003417969,-0.1630859
772,0.625,0.25,-0.875,0.02099609,-0.02294922,0.9726563,0.1816406,-0.003417969,-0.1630859
774,1.375,0.25,-0.625,0.02099609,-0.02294922,0.9726563,0.1831055,-0.003417969,-0.1621094
775,1.4375,-0.125,-0.25,0.02099609,-0.03076172,0.984375,0.1816406,-0.004882813,-0.1645508
777,1.8125,-0.375,-0.1875,0.02880859,-0.02685547,0.9804688,0.1816406,-0.004882813,-0.1645508
778,0.875,-0.6875,-0.0625,0.02880859,-0.01904297,0.984375,0.1816406,-0.001953125,-0.1621094
780,2,-0.8125,0.0625,0.03271484,-0.02294922,0.9921875,0.1831055,-0.003417969,-0.1645508
781,0.5625,-1.125,0.125,0.02099609,-0.02685547,0.9882813,0.1831055,-0.003417969,-0.1645508
783,0.8125,-1.1875,0.6875,0.01318359,-0.02294922,0.9882813,0.1831055,-0.004882813,-0.1630859
784,1.375,-1.0625,0.5,0.01318359,-0.02294922,0.9921875,0.1816406,-0.003417969,-0.1645508
786,0.6875,-0.5625,0.6875,0.009277344,-0.01513672,0.9882813,0.1816406,-0.003417969,-0.1645508
787,0.6875,-0.375,0.5625,-0.001464844,-0.01123047,0.9882813,0.184082,-0.004882813,-0.1621094
789,0.3125,0.125,0.5,-0.001464844,-0.007324219,1,0.1831055,-0.003417969,-0.1645508
790,0,0.5,0.1875,-0.009277344,0,0.9960938,0.1831055,-0.003417969,-0.1645508
792,-0.375,1.0625,0,-0.01708984,-0.003417969,0.9960938,0.1831055,-0.003417969,-0.1630859
793,-0.125,1.3125,-0.125,-0.01318359,0,0.9921875,0.184082,-0.004882813,-0.1645508
795,-0.8125,1.25,-0.875,-0.01318359,-0.003417969,0.984375,0.184082,-0.004882813,-0.1645508
797,-1.375,1.4375,-0.9375,-0.009277344,-0.003417969,1,0.184082,-0.003417969,-0.1630859
799,-1.6875,1.875,-1.125,-0.001464844,-0.003417969,0.9921875,0.184082,-0.003417969,-0.1645508
800,-1.0625,2.0625,-1.1875,0.001464844,0.0078125,0.984375,0.184082,-0.003417969,-0.1645508
802,-1.125,2.3125,-1.375,0.01708984,-0.003417969,0.984375,0.1831055,-0.003417969,-0.1645508
803,-0.5625,2.375,-1.125,0.02099609,-0.007324219,0.9804688,0.1831055,-0.003417969,-0.1630859
805,0,1.6875,-0.875,0.01318359,-0.003417969,0.9765625,0.1831055,-0.003417969,-0.1630859
806,-0.1875,0.875,-0.75,0.02490234,-0.007324219,0.9765625,0.1831055,-0.003417969,-0.1630859
808,0.75,0.0625,-0.5,0.02490234,-0.01123047,0.984375,0.1816406,-0.003417969,-0.1630859
809,0.875,-0.9375,-0.3125,0.02490234,-0.01123047,0.984375,0.1816406,-0.003417969,-0.1630859
811,1.6875,-1.6875,0,0.01708984,-0.007324219,0.984375,0.1831055,-0.003417969,-0.1630859
812,1.875,-2.3125,-0.125,0.01318359,-0.003417969,0.9921875,0.1816406,-0.001953125,-0.1645508
814,2.25,-2.375,0,0.01318359,-0.003417969,0.9960938,0.1816406,-0.001953125,-0.1645508
815,2.25,-2,-0.375,0.01708984,-0.007324219,1.007813,0.184082,-0.003417969,-0.1630859
817,2.1875,-0.9375,-0.4375,0.02099609,-0.01123047,1,0.1831055,-0.001953125,-0.1630859
818,1.5625,0.1875,-0.375,0.01318359,-0.007324219,1,0.1831055,-0.001953125,-0.1630859
820,1.125,0.8125,-0.375,0.01318359,-0.01123047,1.007813,0.1816406,-0.004882813,-0.1630859
821,0.0625,1.6875,-0.1875,0.009277344,-0.01123047,1.003906,0.1831055,-0.004882813,-0.1621094
823,0.875,2.25,0,0.009277344,-0.01513672,1.003906,0.1831055,-0.004882813,-0.1621094
824,-0.25,2.5,-0.0625,0.009277344,-0.01123047,1.007813,0.184082,-0.001953125,-0.1621094
826,-0.125,2.5625,-0.1875,0.005371094,-0.01123047,1,0.1831055,-0.004882813,-0.1660156
827,-1.1875,2.125,-0.1875,0.001464844,-0.007324219,1,0.1831055,-0.004882813,-0.1660156
829,-1.4375,1.8125,-0.125,-0.001464844,-0.007324219,1,0.1831055,-0.004882813,-0.1645508
830,-1.5,1.375,-0.4375,-0.001464844,-0.003417969,0.9804688,0.184082,-0.003417969,-0.1645508
832,-2.375,0.625,-0.8125,-0.005371094,0.00390625,0.9882813,0.184082,-0.003417969,-0.1645508
833,-1.625,0.125,-0.8125,-0.005371094,0,0.9804688,0.1816406,-0.003417969,-0.1660156
835,-0.75,-0.3125,-1.0625,-0.01318359,-0.003417969,0.9765625,0.1831055,-0.003417969,-0.1674805
836,0,-1.125,-1.0625,-0.005371094,0,0.9804688,0.1831055,-0.003417969,-0.1674805
838,0.25,-1.5,-1.375,0.005371094,0.00390625,0.984375,0.1816406,-0.003417969,-0.1645508
839,0.625,-1.5625,-1.0625,0.005371094,-0.003417969,0.9921875,0.184082,-0.003417969,-0.1660156
841,1.125,-2,-1.1875,0.005371094,-0.003417969,0.984375,0.184082,-0.003417969,-0.1660156
842,1.625,-2.3125,-1.1875,0.005371094,0,0.9882813,0.1831055,-0.003417969,-0.1645508
844,1.625,-2.5,-1.3125,0.01708984,-0.003417969,0.9960938,0.1831055,-0.003417969,-0.1621094
845,1.6875,-2.75,-1.1875,0.01708984,-0.01123047,1.003906,0.1831055,-0.003417969,-0.1621094
847,1.625,-2.6875,-0.875,0.01708984,-0.01123047,1.003906,0.184082,-0.003417969,-0.1606445
848,2,-2.125,-0.9375,0.01708984,-0.003417969,1.011719,0.1816406,-0.003417969,-0.1630859
850,0.5625,-1.5625,-0.6875,0.02490234,-0.007324219,1.011719,0.1816406,-0.003417969,-0.1630859
851,0.8125,-0.9375,-0.5,0.01708984,-0.01513672,1.019531,0.1831055,-0.004882813,-0.1630859
853,-0.1875,-0.5,-0.75,0.01318359,-0.007324219,1.019531,0.1816406,-0.003417969,-0.1630859
854,-0.75,0.125,-1.0625,0.005371094,-0.007324219,1.015625,0.1816406,-0.003417969,-0.1630859
856,-1.125,0.6875,-1.3125,0.005371094,-0.01123047,1.019531,0.1831055,-0.004882813,-0.1630859
857,-2.5625,1.3125,-1.5625,0.01318359,-0.01123047,1.003906,0.1831055,-0.003417969,-0.1630859
859,-2.5,1.875,-1.4375,0.009277344,-0.01513672,0.9921875,0.1831055,-0.003417969,-0.1630859
860,-3.0625,2,-1.75,0.02099609,-0.01904297,0.9765625,0.1855469,-0.003417969,-0.1621094
862,-3.0625,1.9375,-1.5625,0.02099609,-0.02294922,0.984375,0.1831055,-0.001953125,-0.1621094
863,-2.4375,1.8125,-1.1875,0.03271484,-0.03076172,0.96875,0.1831055,-0.001953125,-0.1621094
865,-1.625,1.1875,-0.3125,0.03662109,-0.02685547,0.9614258,0.1831055,-0.001953125,-0.1630859
866,-1.25,0.6875,-0.1875,0.04443359,-0.03076172,0.9536133,0.184082,-0.003417969,-0.1645508
868,-0.125,-0.0625,0,0.04443359,-0.02294922,0.9536133,0.184082,-0.003417969,-0.1645508
869,-0.625,-0.875,0.5625,0.04833984,-0.02685547,0.9458008,0.1831055,-0.001953125,-0.1630859
871,1,-1.8125,0.8125,0.03662109,-0.01904297,0.9536133,0.1831055,-0.001953125,-0.1630859
872,0.875,-2.5625,1.0625,0.03662109,-0.02685547,0.9575195,0.1831055,-0.001953125,-0.1630859
874,1.9375,-2.8125,1.4375,0.03662109,-0.01513672,0.96875,0.1831055,-0.001953125,-0.1645508
875,2.3125,-2.8125,1.5,0.02880859,-0.01513672,0.9882813,0.1831055,-0.003417969,-0.1630859
877,2.5625,-2.3125,1.5,0.02490234,-0.01123047,0.9882813,0.1831055,-0.003417969,-0.1630859
878,2.4375,-1.8125,1.75,0.02490234,-0.007324219,0.9882813,0.1831055,-0.001953125,-0.1630859
880,2.25,-1.25,1.3125,0.01708984,0,0.9921875,0.184082,-0.004882813,-0.1660156
881,1.8125,-0.5,1.0625,0.01318359,-0.003417969,1,0.184082,-0.004882813,-0.1660156
883,1.4375,0.3125,0.6875,0.009277344,0.0078125,1.007813,0.1816406,-0.004882813,-0.1630859
884,0.8125,1.1875,0.375,0.009277344,0.0078125,0.9921875,0.1831055,-0.003417969,-0.1630859
886,0.375,1.3125,0.0625,-0.001464844,0.00390625,0.984375,0.1831055,-0.003417969,-0.1630859
887,0,1.125,0.0625,-0.001464844,-0.007324219,0.984375,0.184082,-0.001953125,-0.1630859
889,0.0625,1.0625,-0.1875,0.005371094,-0.003417969,0.9804688,0.1831055,-0.001953125,-0.1645508
890,-0.0625,1.3125,-0.0625,0.005371094,-0.003417969,0.984375,0.1831055,-0.001953125,-0.1645508
892,0,1.6875,0.125,0.009277344,-0.007324219,0.984375,0.1816406,-0.004882813,-0.1621094
895,0.125,1.75,0.3125,0.005371094,-0.01123047,0.9726563,0.1816406,-0.003417969,-0.1630859
897,0.1875,1.875,0.375,0.009277344,-0.01513672,0.9882813,0.1816406,-0.003417969,-0.1630859
898,0.375,1.4375,0.75,0.005371094,-0.01123047,0.9765625,0.1816406,-0.003417969,-0.1645508
900,0.1875,1.4375,1.125,0.009277344,-0.007324219,0.9726563,0.184082,-0.004882813,-0.1645508
901,0.125,1.375,0.9375,0.01318359,-0.01513672,0.9804688,0.184082,-0.004882813,-0.1645508
903,0,1.0625,1.4375,0.01318359,-0.01513672,0.9726563,0.1855469,-0.003417969,-0.1621094
904,0.0625,0.9375,1.625,0.02490234,-0.01904297,0.96875,0.1831055,-0.003417969,-0.1630859
906,0.5,0.4375,2,0.01708984,-0.01904297,0.9765625,0.1831055,-0.003417969,-0.1630859
907,0.8125,-0.625,2.1875,0.01318359,-0.01513672,0.9648438,0.1831055,-0.003417969,-0.1630859
909,1.125,-1,2.4375,0.01708984,-0.01513672,0.9765625,0.1831055,-0.004882813,-0.1645508
910,1.875,-1.25,2.6875,0.005371094,-0.01513672,0.9765625,0.1831055,-0.004882813,-0.1645508
912,2.625,-1.25,2.375,0.005371094,-0.01513672,0.9765625,0.1831055,-0.003417969,-0.1645508
913,2.75,-1.375,2.1875,-0.001464844,-0.007324219,0.9804688,0.1816406,-0.003417969,-0.1630859
915,2.875,-0.75,1.75,-0.009277344,-0.007324219,0.9804688,0.1816406,-0.003417969,-0.1630859
916,2.5625,-0.4375,1.4375,-0.01708984,-0.003417969,0.9960938,0.1831055,-0.003417969,-0.1630859
918,2.5625,-0.125,0.5625,-0.01708984,-0.003417969,0.9921875,0.1816406,-0.004882813,-0.1621094
919,1.8125,0.625,-0.125,-0.01708984,0,1,0.1816406,-0.004882813,-0.1621094
921,1.625,1.625,-0.75,-0.01708984,0.0078125,1.007813,0.1831055,-0.004882813,-0.1621094
922,1.1875,2.4375,-1.3125,-0.02880859,0.0078125,0.9921875,0.1831055,-0.004882813,-0.1645508
924,0.5,2.5,-1.8125,-0.03271484,0.00390625,0.9921875,0.1831055,-0.004882813,-0.1645508
925,0.4375,2.75,-1.75,-0.02099609,-0.003417969,0.984375,0.1816406,-0.003417969,-0.1606445
927,1.0625,2.6875,-2.0625,-0.01318359,0,0.9804688,0.1816406,-0.003417969,-0.1621094
928,1.75,2.9375,-2.3125,-0.009277344,-0.003417969,0.9921875,0.1816406,-0.003417969,-0.1621094
930,2.1875,3,-2.125,0.001464844,-0.003417969,0.9960938,0.1816406,-0.003417969,-0.1630859
931,2.3125,2.875,-1.9375,0.005371094,-0.003417969,0.9921875,0.184082,-0.003417969,-0.1630859
933,2.5625,2.625,-1.25,0.01318359,-0.007324219,1.003906,0.184082,-0.003417969,-0.1630859
934,2.625,2.1875,-1.1875,0.01708984,-0.007324219,1.007813,0.1816406,-0.003417969,-0.1621094
936,2.4375,1.8125,-1.125,0.02490234,-0.01123047,1.003906,0.184082,-0.003417969,-0.1630859
937,2.25,1.5,-0.875,0.02099609,-0.01904297,1.015625,0.184082,-0.003417969,-0.1630859
939,1.75,1.375,-0.4375,0.02880859,-0.01904297,1.019531,0.1816406,-0.003417969,-0.1630859
940,1.1875,1.25,-0.5625,0.02880859,-0.01904297,1.019531,0.1831055,-0.004882813,-0.1645508
942,0.8125,1.25,-0.5,0.02490234,-0.01904297,1.019531,0.1831055,-0.004882813,-0.1645508
943,0.5,1.5,-0.4375,0.02490234,-0.02294922,1.011719,0.1831055,-0.003417969,-0.1645508
945,0.5,1.875,-0.375,0.02490234,-0.01904297,1.011719,0.1831055,-0.003417969,-0.1630859
946,0.1875,2.625,-0.3125,0.01318359,-0.01513672,1.011719,0.1831055,-0.003417969,-0.1630859
948,-0.3125,3.125,-0.1875,0.01708984,-0.01904297,0.9921875,0.1831055,-0.004882813,-0.1660156
949,-0.5625,3.1875,-0.1875,0.009277344,-0.02294922,0.9960938,0.184082,-0.003417969,-0.1630859
951,-0.5,3.0625,-0.375,0.005371094,-0.01904297,0.9921875,0.184082,-0.003417969,-0.1630859
952,-0.75,2.8125,-0.625,-0.005371094,-0.02294922,0.9648438,0.1855469,-0.003417969,-0.1621094
954,-0.625,2.25,-0.8125,-0.009277344,-0.01904297,0.9726563,0.184082,-0.003417969,-0.1645508
955,-0.3125,1.5625,-1.0625,-0.01318359,-0.01904297,0.9614258,0.184082,-0.003417969,-0.1645508
957,0.25,1,-1.25,-0.01708984,-0.01513672,0.9648438,0.184082,-0.003417969,-0.1630859
958,0.5625,0.4375,-1.25,-0.01318359,-0.02294922,0.9575195,0.184082,-0.004882813,-0.1606445
960,1.1875,-0.3125,-1.375,-0.009277344,-0.02294922,0.9614258,0.184082,-0.004882813,-0.1606445
961,1.5625,-1.25,-1.4375,0.001464844,-0.01513672,0.9648438,0.1831055,-0.001953125,-0.1630859
963,2.1875,-1.6875,-1.0625,0.005371094,-0.01904297,0.9765625,0.184082,-0.004882813,-0.1630859
964,2.9375,-2.0625,-0.75,0.01318359,-0.02294922,0.984375,0.184082,-0.004882813,-0.1630859
966,3.1875,-2.5625,-0.5,0.02099609,-0.01904297,0.9960938,0.1831055,-0.003417969,-0.1630859
967,3.1875,-2.5625,-0.0625,0.02490234,-0.01123047,1.007813,0.1831055,-0.003417969,-0.1630859
969,2.8125,-2.5625,0.25,0.02490234,-0.01123047,1.023438,0.1831055,-0.003417969,-0.1630859
970,2,-2.625,0.3125,0.02490234,-0.01123047,1.027344,0.184082,-0.003417969,-0.1645508
972,1.1875,-2.5625,0.4375,0.02490234,-0.003417969,1.027344,0.184082,-0.003417969,-0.1660156
973,0,-2.25,0.3125,0.02490234,0,1.03125,0.184082,-0.003417969,-0.1660156
975,-1.0625,-1.8125,0.125,0.01708984,0.00390625,1.050293,0.1816406,-0.003417969,-0.1630859
976,-1.9375,-1,-0.125,0.01708984,0.00390625,1.04248,0.1831055,-0.003417969,-0.1630859
978,-2.4375,-0.25,-0.125,0.01708984,0.0078125,1.03125,0.1831055,-0.003417969,-0.1630859
979,-3.0625,0.375,-0.4375,0.009277344,0.0078125,1.023438,0.1831055,-0.005859375,-0.1621094
981,-3.4375,1,-0.3125,0.005371094,0.0078125,1.007813,0.1831055,-0.004882813,-0.1645508
982,-3.8125,1.3125,-0.375,-0.001464844,0,0.9960938,0.1831055,-0.004882813,-0.1645508
984,-3.9375,0.6875,-0.25,-0.001464844,0,0.9804688,0.1831055,-0.004882813,-0.1630859
985,-4.125,0.1875,0,-0.005371094,0.0078125,0.9765625,0.1831055,-0.004882813,-0.1606445
987,-3.6875,-0.6875,-0.125,-0.001464844,0.01171875,0.9804688,0.1831055,-0.004882813,-0.1606445
988,-3,-1.5,0,-0.009277344,0.0078125,0.9882813,0.1816406,-0.003417969,-0.1630859
990,-2.125,-1.75,-0.1875,-0.01318359,0.01171875,0.9882813,0.1831055,-0.003417969,-0.1630859
992,-1.5,-1.9375,-0.3125,-0.009277344,0.01171875,0.9960938,0.1831055,-0.003417969,-0.1630859
994,-0.4375,-1.9375,-0.6875,-0.005371094,0.00390625,0.9960938,0.1831055,-0.003417969,-0.1621094
995,-1.3125,-1.5625,-1.0625,-0.005371094,0.00390625,1,0.184082,-0.003417969,-0.1630859
997,-0.3125,-1.0625,-1.375,0.001464844,0,1,0.184082,-0.003417969,-0.1630859
998,-1,-0.3125,-1.75,-0.001464844,-0.003417969,0.9960938,0.1831055,-0.004882813,-0.1621094
1000,-0.9375,0.5,-2,0.01318359,-0.007324219,0.9921875,0.1831055,-0.003417969,-0.1630859
1001,-1.25,1.4375,-1.875,0.01708984,-0.01123047,0.9882813,0.1831055,-0.003417969,-0.1630859
1003,-1.6875,2,-2,0.01318359,-0.01513672,0.9726563,0.1806641,-0.003417969,-0.1621094
1004,-2.0625,1.4375,-1.875,0.01708984,-0.01904297,0.96875,0.1831055,-0.003417969,-0.1645508
1006,-2.4375,0.75,-1.6875,0.009277344,-0.02685547,0.9575195,0.1831055,-0.003417969,-0.1645508
1007,-1.5,-0.1875,-1.75,-0.001464844,-0.02294922,0.9536133,0.1816406,-0.001953125,-0.1645508
1009,-1.3125,-1.5625,-1.5,-0.001464844,-0.01513672,0.949707,0.1816406,-0.003417969,-0.1645508
1010,-0.1875,-2.375,-1.3125,-0.001464844,-0.02294922,0.949707,0.1816406,-0.003417969,-0.1645508
1012,0,-3.3125,-1.625,-0.005371094,-0.01513672,0.9458008,0.1816406,-0.001953125,-0.1630859
1013,0.9375,-3.6875,-1.3125,-0.005371094,-0.01904297,0.949707,0.1831055,-0.003417969,-0.1630859
1015,0.6875,-3.625,-1.625,0.001464844,-0.01123047,0.9536133,0.1831055,-0.003417969,-0.1630859
1016,1.1875,-3.4375,-1.6875,0.001464844,-0.003417969,0.949707,0.1831055,-0.003417969,-0.1606445
1018,1.5,-2.4375,-1.8125,0.001464844,-0.003417969,0.96875,0.1816406,-0.003417969,-0.1630859
1019,2,-1.75,-2.0625,0.001464844,0,0.9804688,0.1816406,-0.003417969,-0.1630859
1021,2.5625,-1.1875,-1.875,0.009277344,0.00390625,0.9960938,0.1816406,-0.004882813,-0.1630859
1022,2.3125,-0.8125,-2.0625,0.01708984,0,1.007813,0.1816406,-0.003417969,-0.1630859
1024,2.3125,-0.6875,-2.0625,0.02490234,0.00390625,1.015625,0.1816406,-0.003417969,-0.1630859
1025,1.875,-0.25,-2.25,0.02880859,0,1.015625,0.184082,-0.003417969,-0.1630859
1027,1.375,0,-1.9375,0.03271484,0.00390625,1.027344,0.1816406,-0.003417969,-0.1630859
1028,0.5625,0.25,-1.5,0.03662109,0,1.023438,0.1816406,-0.003417969,-0.1630859
1030,-0.0625,0.6875,-1.5,0.04443359,0,1.019531,0.1831055,-0.0009765625,-0.1630859
1031,-1.3125,1.0625,-0.8125,0.04052734,-0.003417969,1.015625,0.1831055,-0.003417969,-0.1630859
1033,-0.875,1.125,-0.125,0.04833984,-0.003417969,1.015625,0.1831055,-0.003417969,-0.1630859
1034,-1.75,1.375,-0.125,0.03662109,-0.003417969,1.011719,0.1831055,-0.003417969,-0.1630859
1036,-2,1.5,0,0.02880859,-0.007324219,0.9882813,0.1831055,-0.003417969,-0.1630859
1037,-1.375,1.375,0.25,0.01318359,-0.01513672,0.9882813,0.1831055,-0.003417969,-0.1630859
1039,-1.25,1.25,0,0.01318359,-0.007324219,0.984375,0.184082,-0.004882813,-0.1645508
1040,-1,1.1875,0,0.001464844,-0.01123047,0.9765625,0.1816406,-0.003417969,-0.1621094
1042,-1.125,1.3125,-0.0625,-0.005371094,-0.01123047,0.9726563,0.1816406,-0.003417969,-0.1621094
1043,-0.9375,1.375,-0.4375,-0.001464844,-0.003417969,0.9614258,0.1831055,-0.003417969,-0.1621094
1045,-0.8125,1.125,-0.6875,-0.01318359,-0.007324219,0.9575195,0.1816406,-0.003417969,-0.1660156
1046,-0.125,1.0625,-0.6875,-0.01318359,-0.007324219,0.9575195,0.1816406,-0.003417969,-0.1660156
1048,0.8125,0.9375,-0.5,-0.009277344,-0.003417969,0.9648438,0.1816406,-0.003417969,-0.1630859
1049,1.5625,0.3125,-0.3125,-0.005371094,-0.01513672,0.9648438,0.1831055,-0.001953125,-0.1621094
1051,2.375,0.125,-0.1875,0.009277344,-0.01513672,0.96875,0.1831055,-0.001953125,-0.1621094
1052,2.4375,-0.625,-0.0625,0.009277344,-0.01513672,0.9726563,0.184082,-0.001953125,-0.1630859
1054,2.5,-1.625,0.1875,0.01318359,-0.01904297,0.9726563,0.184082,-0.003417969,-0.1645508
1055,2.3125,-2.375,0.3125,0.009277344,-0.01513672,0.9804688,0.184082,-0.003417969,-0.1645508
1057,2.1875,-2.8125,0.375,0.02490234,-0.01123047,0.984375,0.1831055,-0.003417969,-0.1645508
1058,1.6875,-3.125,0.625,0.01708984,-0.007324219,0.9921875,0.1831055,-0.003417969,-0.1630859
1060,1.375,-3.3125,0.625,0.009277344,-0.01123047,1,0.1831055,-0.003417969,-0.1630859
1061,0.5,-3.625,1,0.009277344,-0.007324219,1.007813,0.1831055,-0.003417969,-0.1621094
1063,0,-3.6875,0.9375,0.009277344,0.00390625,1.007813,0.1816406,-0.003417969,-0.1621094
1064,-0.0625,-3.25,0.625,0.009277344,-0.003417969,1.015625,0.1816406,-0.003417969,-0.1621094
1066,-0.375,-2.6875,0.1875,0.005371094,-0.003417969,1.015625,0.1831055,-0.004882813,-0.1630859
1067,-0.6875,-2.1875,0,-0.001464844,0,1.015625,0.1816406,-0.001953125,-0.1606445
1069,-1.1875,-1.6875,-0.5,0.001464844,0.00390625,1.003906,0.1816406,-0.001953125,-0.1606445
1070,-1.375,-1.25,-0.5625,-0.005371094,0.00390625,1.011719,0.1831055,-0.003417969,-0.1630859
1072,-1.5625,-0.625,-0.875,-0.009277344,0.00390625,1.007813,0.1816406,-0.003417969,-0.1621094
1073,-1.4375,0,-0.8125,-0.009277344,0.00390625,1.023438,0.1816406,-0.003417969,-0.1621094
1075,-1.5,0.6875,-1.1875,-0.009277344,0.00390625,1.023438,0.1816406,-0.001953125,-0.1621094
1076,-1.625,0.75,-1.375,-0.009277344,-0.007324219,1.007813,0.1831055,-0.003417969,-0.1621094
1078,-1.875,0.125,-1.8125,-0.009277344,-0.01123047,1.015625,0.1831055,-0.003417969,-0.1621094
1079,-2.125,-0.75,-2.0625,-0.01708984,-0.01513672,1.003906,0.1816406,-0.001953125,-0.1630859
1081,-2.5,-1.8125,-2.625,-0.02099609,-0.01904297,1,0.1831055,-0.004882813,-0.1621094
1082,-3,-2.6875,-3,-0.02490234,-0.02685547,0.9882813,0.1831055,-0.004882813,-0.1621094
1084,-3,-2.8125,-3.1875,-0.01318359,-0.02294922,0.9921875,0.1816406,-0.003417969,-0.1621094
1085,-2.8125,-2.375,-3.375,-0.009277344,-0.02685547,1,0.1831055,-0.0009765625,-0.1621094
1087,-2.75,-2.0625,-3.125,-0.005371094,-0.03076172,0.9882813,0.1831055,-0.0009765625,-0.1621094
1090,-2.4375,-2.1875,-2.75,-0.005371094,-0.03857422,0.9921875,0.1831055,-0.003417969,-0.1630859
1092,-2.5625,-2.5625,-2.625,0.001464844,-0.03857422,0.9804688,0.1816406,-0.001953125,-0.1630859
1093,-3.625,-4.3125,-2.1875,0.01708984,-0.03466797,0.9921875,0.1816406,-0.001953125,-0.1630859
1095,-2.75,-4.375,-2.625,0.02099609,-0.04638672,1.003906,0.1816406,-0.0009765625,-0.1660156
1096,-2.25,-4.0625,-2.6875,0.02880859,-0.03857422,0.9960938,0.1816406,-0.0009765625,-0.1645508
1098,-2.5625,-4.3125,-2.4375,0.02880859,-0.04248047,0.984375,0.1816406,-0.0009765625,-0.1645508
1099,-4.1875,-5.375,-1.75,0.001464844,-0.02294922,0.9575195,0.1806641,-0.003417969,-0.1630859
1101,-8.3125,-10.75,-1.375,0.009277344,-0.04638672,0.9804688,0.1816406,-0.003417969,-0.1645508
1102,-5.8125,-11.75,-2.625,0.01708984,-0.06933594,1.011719,0.1816406,-0.003417969,-0.1645508
1104,-2.0625,-10.1875,-4.625,0.02880859,-0.04638672,1.011719,0.1816406,-0.001953125,-0.1630859
1105,-3.75,-9.125,-4.875,0.001464844,-0.02685547,0.9804688,0.1816406,-0.0009765625,-0.1645508
1107,-5.5,-8.5625,-3.875,-0.01318359,-0.04638672,0.96875,0.1816406,-0.0009765625,-0.1645508
1108,-5.4375,-8.375,-4.0625,-0.01318359,-0.05419922,0.96875,0.1831055,-0.0009765625,-0.1645508
1110,-4.4375,-8.25,-4.9375,0.001464844,-0.06591797,0.9765625,0.1816406,-0.001953125,-0.1630859
1111,-3.6875,-8.125,-5.8125,0.001464844,-0.06933594,0.9882813,0.1816406,-0.001953125,-0.1630859
1113,-2.625,-7.3125,-6.4375,0.009277344,-0.06933594,0.9726563,0.1831055,-0.001953125,-0.1660156
1114,-2.25,-6.5625,-6.5625,0.005371094,-0.07324219,0.96875,0.1816406,-0.001953125,-0.1645508
1116,-1.5625,-5.25,-6.5625,0.01318359,-0.08496094,0.9614258,0.1816406,-0.001953125,-0.1645508
1117,-0.125,-3.25,-6.25,0.01318359,-0.07714844,0.9648438,0.1831055,0,-0.1645508
1119,0.5625,-1.5,-6.375,0.009277344,-0.07714844,0.9536133,0.1831055,-0.001953125,-0.1645508
1120,1.625,-0.8125,-6.25,0.009277344,-0.08105469,0.9614258,0.1831055,-0.001953125,-0.1645508
1122,2.25,-0.625,-6.0625,0.01318359,-0.08105469,0.9575195,0.1816406,-0.001953125,-0.1660156
1123,2.625,-0.5625,-6.3125,0.01318359,-0.08105469,0.9726563,0.1816406,-0.0009765625,-0.1630859
1125,2.75,-0.4375,-6.375,0.02490234,-0.08105469,0.9804688,0.1816406,-0.0009765625,-0.1630859
1126,2.75,-0.0625,-6.125,0.02880859,-0.07714844,0.9804688,0.1806641,-0.0009765625,-0.1645508
1128,2.75,0.5,-5.6875,0.02880859,-0.07714844,0.9804688,0.1816406,-0.003417969,-0.1621094
1129,2.625,0.125,-5.5625,0.03271484,-0.07714844,0.9804688,0.1816406,-0.003417969,-0.1621094
1131,2.3125,-0.3125,-5.625,0.02880859,-0.07714844,0.9882813,0.1831055,0,-0.1660156
1132,2.375,-0.625,-5.6875,0.02490234,-0.07714844,0.9960938,0.1816406,-0.003417969,-0.1645508
1134,2.4375,-0.875,-5.5,0.01708984,-0.06933594,1.003906,0.1816406,-0.003417969,-0.1645508
1135,2.8125,-1.25,-5.9375,0.009277344,-0.06933594,1,0.1806641,-0.001953125,-0.1645508
1137,3.1875,-1.3125,-6.5625,0.001464844,-0.05419922,1.023438,0.1816406,-0.0009765625,-0.1645508
1138,3.0625,-1.5,-7,-0.01318359,-0.05419922,1.015625,0.1816406,-0.0009765625,-0.1645508
1140,2.9375,-1.4375,-7.6875,-0.01708984,-0.05029297,1.019531,0.1806641,0,-0.1630859
1141,2.3125,-1.25,-8.8125,-0.01318359,-0.05810547,1.023438,0.1816406,-0.0009765625,-0.1660156
1143,1.375,-1.0625,-9.6875,-0.01708984,-0.06201172,1.023438,0.1816406,-0.0009765625,-0.1660156
1144,0.5,-0.9375,-10.5625,-0.01318359,-0.06591797,1.019531,0.1806641,-0.0009765625,-0.1645508
1146,-0.125,-0.5,-10.75,-0.02099609,-0.06591797,1,0.1806641,-0.003417969,-0.1660156
1147,-1.125,-0.5625,-11,-0.02490234,-0.06591797,1.007813,0.1806641,-0.003417969,-0.1660156
1149,-1.375,-0.75,-11.25,-0.02880859,-0.06591797,1.015625,0.1806641,-0.0009765625,-0.1660156
1150,-1.5625,-1.3125,-11.6875,-0.02490234,-0.06933594,0.9921875,0.1806641,-0.0009765625,-0.1645508
1152,-1.75,-2.3125,-12.375,-0.02099609,-0.06933594,0.9921875,0.1806641,-0.0009765625,-0.1645508
1153,-2.75,-3.6875,-12.8125,-0.02099609,-0.05810547,0.9765625,0.1806641,-0.0009765625,-0.1660156
1155,-3.8125,-5,-13.375,-0.03271484,-0.06201172,0.9804688,0.1816406,-0.001953125,-0.1660156
1156,-3.6875,-6.25,-13.5,-0.03271484,-0.06201172,0.96875,0.1816406,-0.001953125,-0.1660156
1158,-3.25,-6.6875,-13.375,-0.02880859,-0.05810547,0.9804688,0.1816406,-0.0009765625,-0.168457
1159,-2.5,-6.75,-13.1875,-0.02490234,-0.05029297,0.984375,0.1806641,-0.001953125,-0.1674805
1161,-2.25,-7.125,-13.3125,-0.03271484,-0.03857422,1,0.1806641,-0.001953125,-0.1674805
1162,-2.375,-7.3125,-12.9375,-0.02490234,-0.04248047,1.011719,0.1806641,-0.0009765625,-0.1674805
1164,-2.8125,-8.4375,-13,-0.03271484,-0.03857422,1.019531,0.1806641,0,-0.1660156
1165,-3.75,-9.4375,-12.875,-0.02880859,-0.04248047,1.035156,0.1806641,0,-0.1660156
1167,-4.9375,-11.0625,-13.3125,-0.02880859,-0.03857422,1.038574,0.1816406,0.0009765625,-0.1674805
1168,-6.25,-12.625,-13.3125,-0.03271484,-0.05029297,1.054199,0.1791992,0.0009765625,-0.1660156
1170,-8.125,-14.5,-13.5,-0.02490234,-0.05029297,1.050293,0.1791992,0.0009765625,-0.1660156
1171,-9.9375,-16.3125,-13.6875,-0.03271484,-0.05810547,1.058105,0.1806641,0,-0.1645508
1173,-12.8125,-18.1875,-13.6875,-0.02099609,-0.05419922,1.058105,0.1806641,0.0009765625,-0.168457
1174,-15.0625,-20,-13.1875,-0.02490234,-0.06591797,1.038574,0.1806641,0.0009765625,-0.168457
1176,-17.0625,-22.25,-12.625,-0.02099609,-0.06933594,1.027344,0.1791992,0.002441406,-0.1674805
1177,-19.0625,-24.5,-12.375,-0.01318359,-0.07324219,1.019531,0.1791992,0.0009765625,-0.1674805
1179,-20.1875,-26.5625,-12.1875,-0.01708984,-0.06933594,1.015625,0.1791992,0.0009765625,-0.1674805
1180,-21.4375,-28.4375,-12.1875,-0.01708984,-0.05810547,1.011719,0.1791992,0.0009765625,-0.1699219
1182,-21.5625,-29.5,-12.5,-0.02099609,-0.06201172,1.015625,0.1782227,0.003417969,-0.168457
1183,-19.9375,-28.75,-13.1875,-0.02099609,-0.06591797,1.019531,0.1782227,0.003417969,-0.168457
1185,-18.125,-25.9375,-14.25,-0.009277344,-0.05810547,1.011719,0.1782227,0.0009765625,-0.168457
1187,-16,-22.125,-15.9375,0.001464844,-0.05810547,1,0.1791992,0.003417969,-0.1713867
1189,-14.6875,-17.6875,-17.125,-0.001464844,-0.05419922,0.9882813,0.1791992,0.003417969,-0.1713867
1190,-13.25,-13.125,-18.75,0.001464844,-0.06201172,0.984375,0.1806641,0.003417969,-0.168457
1192,-12.3125,-9.1875,-20,-0.001464844,-0.06591797,0.9921875,0.1767578,0.004882813,-0.168457
1193,-11.8125,-6.0625,-21.375,0.01318359,-0.06933594,0.9882813,0.1767578,0.004882813,-0.168457
1195,-11,-3.375,-22.75,0.02490234,-0.07324219,0.9882813,0.1782227,0.003417969,-0.1713867
1196,-10.4375,-1.1875,-24.25,0.03271484,-0.08496094,0.9921875,0.1791992,0.003417969,-0.168457
1198,-9.5625,1.5625,-25.6875,0.04443359,-0.09667969,1.003906,0.1791992,0.003417969,-0.168457
1199,-9.1875,4.25,-26.125,0.05615234,-0.1044922,0.984375,0.1767578,0.004882813,-0.1699219
1201,-9.125,7.25,-26.25,0.07177734,-0.1201172,0.9648438,0.1782227,0.007324219,-0.168457
1202,-9.375,9.3125,-26.1875,0.07568359,-0.1279297,0.934082,0.1782227,0.007324219,-0.168457
1204,-9.625,10.25,-26,0.07177734,-0.1396484,0.9106445,0.1782227,0.004882813,-0.1699219
1205,-9.75,10.5625,-25.6875,0.07958984,-0.1513672,0.8837891,0.1791992,0.004882813,-0.168457
1207,-10.0625,9.625,-24.9375,0.07568359,-0.1586914,0.8564453,0.1791992,0.004882813,-0.168457
1208,-9.5625,8.25,-24.5625,0.07568359,-0.1586914,0.8212891,0.1791992,0.007324219,-0.1699219
1210,-9.1875,6.125,-24.25,0.06396484,-0.1552734,0.7983398,0.1767578,0.008789063,-0.1674805
1211,-8,3.3125,-23.8125,0.06005859,-0.1552734,0.7670898,0.1767578,0.008789063,-0.1674805
1213,-6.375,0.6875,-23.75,0.05224609,-0.1552734,0.7514648,0.1767578,0.008789063,-0.1699219
1214,-4.375,-1.6875,-23.6875,0.04833984,-0.1357422,0.7436523,0.1806641,0.007324219,-0.1699219
1216,-1.875,-3.5625,-23.1875,0.05224609,-0.1318359,0.7514648,0.1806641,0.007324219,-0.1699219
1217,1.1875,-4.5,-22.5625,0.04443359,-0.1083984,0.7670898,0.1782227,0.008789063,-0.1699219
1219,4.375,-4.625,-21.75,0.05224609,-0.08886719,0.7905273,0.1767578,0.008789063,-0.1699219
1220,6.8125,-5,-20.5,0.03662109,-0.08105469,0.8212891,0.1767578,0.008789063,-0.1699219
1222,9.25,-5.125,-18.625,0.04443359,-0.06591797,0.8486328,0.1767578,0.008789063,-0.168457
1223,10.875,-6.0625,-16.3125,0.04833984,-0.07714844,0.8876953,0.1767578,0.008789063,-0.168457
1225,12.875,-7.9375,-13.25,0.04443359,-0.09277344,0.9145508,0.1767578,0.008789063,-0.168457
1226,13.375,-9.5625,-12.5,0.07568359,-0.03857422,0.9418945,0.1767578,0.008789063,-0.1723633
1228,12.125,-11,-12.4375,0.08740234,-0.03466797,0.9614258,0.1767578,0.008789063,-0.1713867
1229,11.625,-10.375,-11.5,0.09521484,-0.04248047,0.9921875,0.1767578,0.008789063,-0.1713867
1231,11.4375,-9.6875,-10.5,0.09521484,-0.03466797,1,0.1791992,0.007324219,-0.1699219
1232,11,-9,-9.6875,0.08740234,-0.03076172,1.007813,0.1767578,0.008789063,-0.1699219
1234,10.5,-9.3125,-8.75,0.07958984,-0.03076172,1.007813,0.1767578,0.008789063,-0.1699219
1235,10.3125,-9.375,-8,0.06787109,-0.03076172,1.011719,0.1767578,0.008789063,-0.1713867
1237,10.25,-9.5,-8.0625,0.05615234,-0.02685547,1.007813,0.1791992,0.005859375,-0.1699219
1238,9.875,-9.6875,-9.375,0.04833984,-0.01123047,1,0.1791992,0.005859375,-0.1699219
1240,9.3125,-9.125,-10.8125,0.04052734,-0.007324219,1.007813,0.1782227,0.007324219,-0.1699219
1241,8.4375,-8.0625,-12.8125,0.02099609,0,1.03125,0.1782227,0.008789063,-0.1699219
1243,7.5,-5.8125,-14.625,0.01318359,0.0078125,1.023438,0.1782227,0.008789063,-0.1699219
1244,6.4375,-3.25,-17.0625,0.005371094,0.0078125,1.019531,0.1767578,0.008789063,-0.1699219
1246,5,-0.1875,-19.5,0.01318359,0.015625,1.015625,0.1767578,0.008789063,-0.1713867
1247,3.5,2.75,-21.5,0.01708984,-0.003417969,1.007813,0.1767578,0.008789063,-0.1713867
1249,2.3125,6,-23.0625,0.02880859,-0.01904297,0.9882813,0.1782227,0.007324219,-0.1713867
1250,1.875,8.5,-22.9375,0.05224609,-0.04248047,0.9614258,0.175293,0.009765625,-0.1699219
1252,2,9.8125,-22.875,0.07177734,-0.05810547,0.9458008,0.175293,0.009765625,-0.1699219
1253,2.5625,11.25,-22.5625,0.09521484,-0.05419922,0.918457,0.1782227,0.009765625,-0.1699219
1255,3.25,11.9375,-21.5,0.1108398,-0.05419922,0.902832,0.1782227,0.01123047,-0.1699219
1256,3.9375,11.1875,-19.4375,0.1030273,-0.04638672,0.8681641,0.1782227,0.01123047,-0.1699219
1258,5.4375,8.8125,-16.625,0.09130859,-0.04248047,0.8564453,0.1782227,0.009765625,-0.1699219
1259,8.125,4.5625,-14.125,0.07177734,-0.03466797,0.8642578,0.1782227,0.008789063,-0.168457
1261,11.8125,-1,-12.125,0.05224609,-0.02294922,0.8837891,0.1782227,0.008789063,-0.168457
1262,14.8125,-7.4375,-10.5,0.04443359,-0.01513672,0.8989258,0.1767578,0.009765625,-0.1738281
1264,16.6875,-12.875,-9.25,0.04052734,-0.003417969,0.934082,0.1767578,0.009765625,-0.1738281
1265,17.6875,-16.625,-8.0625,0.04052734,-0.007324219,0.984375,0.1767578,0.009765625,-0.1738281
1267,16.6875,-18.5,-6.6875,0.04833984,-0.003417969,1.015625,0.1782227,0.008789063,-0.1723633
1268,14.25,-19.375,-6.0625,0.05615234,-0.007324219,1.019531,0.1767578,0.007324219,-0.1699219
1270,10.6875,-19.8125,-5.75,0.06787109,-0.01513672,1.035156,0.1767578,0.007324219,-0.1699219
1271,6.75,-19.6875,-5.625,0.06396484,-0.01123047,1.046387,0.1782227,0.009765625,-0.1723633
1273,3.375,-18.625,-5.5625,0.06396484,-0.01123047,1.058105,0.1767578,0.008789063,-0.1713867
1274,0.4375,-17.75,-5.8125,0.06787109,-0.003417969,1.058105,0.1767578,0.008789063,-0.1713867
1276,-1.5625,-16.25,-6.75,0.06396484,0,1.07373,0.1767578,0.008789063,-0.1713867
1277,-2.8125,-14.6875,-8.5625,0.05224609,0.01171875,1.069824,0.1767578,0.008789063,-0.1699219
1279,-3.5,-12.4375,-10.3125,0.04833984,0.0078125,1.058105,0.1767578,0.008789063,-0.1699219
1280,-3.625,-9.0625,-12.375,0.03662109,0.015625,1.062012,0.1767578,0.008789063,-0.1713867
1282,-3.875,-5.625,-14.5,0.04052734,0.02294922,1.04248,0.1767578,0.008789063,-0.1723633
1285,-4.25,-1.625,-16.75,0.05615234,0.02294922,1.023438,0.1767578,0.008789063,-0.1723633
1287,-3.9375,1.9375,-18.375,0.06005859,0,1.003906,0.1767578,0.009765625,-0.1713867
1288,-2.875,5.3125,-19.5625,0.07568359,-0.01123047,0.984375,0.1767578,0.008789063,-0.1723633
1290,-1.5,7.875,-20.0625,0.09521484,-0.02294922,0.9536133,0.1767578,0.008789063,-0.1723633
1291,0.0625,9.4375,-20.25,0.1108398,-0.04248047,0.9223633,0.175293,0.008789063,-0.1713867
1293,2,9.25,-19.6875,0.1181641,-0.05810547,0.8837891,0.1791992,0.008789063,-0.1713867
1294,3.6875,7.6875,-18.5,0.1337891,-0.05810547,0.8564453,0.1791992,0.008789063,-0.1713867
1296,5.25,4.6875,-17.375,0.1259766,-0.04638672,0.8447266,0.1782227,0.009765625,-0.1699219
1297,7.3125,2,-15.625,0.1142578,-0.03857422,0.8447266,0.1782227,0.009765625,-0.1713867
1299,9.5625,-2.0625,-13.375,0.1030273,-0.03076172,0.8525391,0.1782227,0.009765625,-0.1713867
1300,11.875,-7.0625,-11.5625,0.07958984,-0.01904297,0.8642578,0.1767578,0.01123047,-0.1723633
1302,12.875,-12.5,-10.0625,0.07177734,-0.01123047,0.8989258,0.1767578,0.008789063,-0.1713867
1303,13.3125,-18,-9.6875,0.07177734,0.00390625,0.9301758,0.1767578,0.008789063,-0.1713867
1305,12,-22.4375,-8.6875,0.06787109,0.0078125,0.9765625,0.1767578,0.009765625,-0.1699219
1306,8.375,-26.6875,-7.5625,0.06396484,0.02294922,1.023438,0.1767578,0.009765625,-0.1723633
1308,4.5,-29.8125,-7.25,0.06787109,0.03466797,1.07373,0.1767578,0.009765625,-0.1723633
1309,0.875,-31.25,-7.4375,0.07568359,0.03076172,1.112305,0.1782227,0.008789063,-0.1723633
1311,-1.9375,-30,-8.125,0.07958984,0.04638672,1.143555,0.1767578,0.009765625,-0.1738281
1312,-5.1875,-27.625,-8.75,0.08740234,0.05029297,1.151367,0.1767578,0.009765625,-0.1738281
1314,-8.875,-24.8125,-9,0.09130859,0.04248047,1.147461,0.1767578,0.009765625,-0.1723633
1315,-12.75,-22.1875,-9.75,0.09912109,0.03857422,1.120117,0.175293,0.009765625,-0.1738281
1317,-15.9375,-20,-10.5,0.1108398,0.02685547,1.112305,0.175293,0.009765625,-0.1738281
1318,-18.125,-17.125,-11.25,0.1181641,0.01171875,1.097168,0.175293,0.01123047,-0.1738281
1320,-18.9375,-13.25,-11.25,0.1376953,-0.003417969,1.085449,0.1743164,0.009765625,-0.175293
1321,-18.625,-8.875,-10.375,0.1533203,-0.01513672,1.050293,0.1743164,0.009765625,-0.175293
1323,-17.5,-4.25,-9.375,0.1572266,-0.02685547,1.015625,0.175293,0.009765625,-0.1738281
1324,-16.1875,-0.375,-8.375,0.1650391,-0.04248047,0.9804688,0.1743164,0.01123047,-0.1738281
1326,-14.375,2.1875,-7.4375,0.1650391,-0.03857422,0.9301758,0.1743164,0.01123047,-0.1738281
1327,-12.625,3.3125,-6.6875,0.1533203,-0.03466797,0.8989258,0.1743164,0.009765625,-0.1723633
1329,-11,3.375,-6.3125,0.1416016,-0.02294922,0.8681641,0.175293,0.01123047,-0.1738281
1330,-8.625,2.375,-6.125,0.1142578,-0.01513672,0.8642578,0.175293,0.01123047,-0.1738281
1332,-6.25,1.1875,-6.375,0.09521484,0.01171875,0.8603516,0.175293,0.01220703,-0.1723633
1333,-4.25,0.1875,-6.3125,0.06396484,0.04248047,0.8681641,0.1743164,0.009765625,-0.1738281
1335,-1.5,-1.1875,-6.5,0.03271484,0.06591797,0.902832,0.1743164,0.009765625,-0.1738281
1336,1.25,-2.875,-7,0.01708984,0.08154297,0.934082,0.1767578,0.009765625,-0.1713867
1338,3.8125,-5,-7.625,0.009277344,0.09716797,0.9575195,0.175293,0.01220703,-0.1738281
1339,5.3125,-6.25,-7.875,0.005371094,0.1088867,1.007813,0.175293,0.01220703,-0.1738281
1341,6.4375,-7.25,-9,0.005371094,0.112793,1.035156,0.175293,0.01123047,-0.1738281
1342,6.25,-7.25,-9.375,0.02880859,0.1049805,1.065918,0.175293,0.01123047,-0.1738281
1344,5.5,-6.5625,-9.0625,0.03662109,0.1049805,1.085449,0.175293,0.01123047,-0.1738281
1345,4.625,-5.75,-8.9375,0.04833984,0.09326172,1.101074,0.1767578,0.01123047,-0.1738281
1347,3.4375,-4.0625,-8.875,0.06787109,0.08544922,1.101074,0.1767578,0.01123047,-0.175293
1348,2.375,-2.625,-8.5,0.07958984,0.07373047,1.10498,0.1767578,0.01123047,-0.175293
1350,1.1875,-0.9375,-7.75,0.08740234,0.05810547,1.097168,0.1767578,0.01220703,-0.1738281
1351,-0.0625,0.375,-6.875,0.09912109,0.05029297,1.085449,0.175293,0.009765625,-0.175293
1353,-1,1.6875,-5.875,0.1030273,0.03466797,1.065918,0.175293,0.009765625,-0.175293
1354,-1.625,2.6875,-5.375,0.1142578,0.02294922,1.038574,0.1767578,0.01123047,-0.1738281
1356,-1.9375,3.0625,-5.125,0.1181641,0.01953125,1.003906,0.175293,0.01123047,-0.175293
1357,-2.125,3.875,-5.125,0.1142578,0.00390625,0.9960938,0.175293,0.01123047,-0.175293
1359,-1.75,4.5625,-4.75,0.1142578,0.00390625,0.9726563,0.1767578,0.01123047,-0.1738281
1360,-1.1875,5.5,-4.6875,0.1030273,0.01171875,0.9614258,0.1767578,0.01123047,-0.1723633
1362,-0.9375,6.8125,-4.25,0.1030273,0.0078125,0.9614258,0.1767578,0.01123047,-0.1723633
1363,-0.4375,7.9375,-4.4375,0.09521484,0.00390625,0.9458008,0.1782227,0.01123047,-0.1723633
1365,0.6875,8.4375,-5,0.09912109,-0.003417969,0.9223633,0.175293,0.01123047,-0.1738281
1366,0.625,8.3125,-5.125,0.1069336,-0.007324219,0.9145508,0.175293,0.01123047,-0.1738281
1368,0.1875,7.5625,-5.375,0.1108398,0,0.918457,0.1767578,0.01220703,-0.1738281
1369,-0.4375,6.9375,-5.3125,0.1142578,0,0.9067383,0.1791992,0.009765625,-0.175293
1371,-0.6875,5.75,-5.4375,0.1220703,-0.007324219,0.9106445,0.1791992,0.009765625,-0.175293
1372,-0.625,4.1875,-5.125,0.1181641,0.01171875,0.9106445,0.1791992,0.009765625,-0.175293
1374,-0.5,1.875,-5.3125,0.09912109,0.015625,0.9067383,0.1782227,0.009765625,-0.1738281
1375,-0.375,-1,-5.8125,0.09130859,0.02685547,0.9106445,0.1782227,0.009765625,-0.1738281
1377,0.0625,-4.1875,-6.125,0.07177734,0.03857422,0.9145508,0.1791992,0.01220703,-0.1738281
1378,1.25,-7.4375,-6.625,0.06005859,0.05419922,0.9301758,0.1782227,0.01123047,-0.1777344
1380,2.25,-9.875,-7.3125,0.03271484,0.06591797,0.9379883,0.1782227,0.01123047,-0.1777344
1382,4.625,-11.1875,-7.9375,0.01708984,0.07373047,0.9614258,0.1767578,0.01220703,-0.1723633
1384,6.6875,-11.25,-9.8125,0.01318359,0.07763672,0.9882813,0.1782227,0.01220703,-0.1738281
1385,8.125,-10.5625,-10.4375,0.005371094,0.07763672,1.015625,0.1782227,0.01220703,-0.1738281
1387,7.5,-8.5625,-10.25,0.01318359,0.09326172,1.03125,0.1782227,0.009765625,-0.1738281
1388,6.125,-7,-10.9375,0.02490234,0.08544922,1.04248,0.1767578,0.01123047,-0.1738281
1390,5.0625,-6.3125,-12,0.02490234,0.07763672,1.050293,0.1767578,0.01123047,-0.1738281
1391,4.25,-5.6875,-13.0625,0.03662109,0.05810547,1.07373,0.1791992,0.01220703,-0.1723633
1393,2.6875,-5.375,-13.6875,0.04052734,0.05419922,1.065918,0.1782227,0.01220703,-0.1723633
1394,0.375,-5.3125,-14.0625,0.05224609,0.04248047,1.046387,0.1782227,0.01220703,-0.1723633
1396,-1.5625,-6.0625,-14.5625,0.07177734,0.03076172,1.027344,0.1782227,0.01367188,-0.1738281
1397,-3.75,-7.0625,-15,0.07958984,0.01953125,1.011719,0.1767578,0.01367188,-0.1723633
1399,-5.0625,-8.4375,-15.4375,0.09521484,0.0078125,0.9960938,0.1767578,0.01367188,-0.1723633
1400,-5.5625,-9.5,-15.375,0.1142578,-0.01513672,0.9726563,0.1767578,0.01220703,-0.1738281
1402,-5.4375,-9.5625,-15.25,0.1298828,-0.01513672,0.9536133,0.1767578,0.01367188,-0.1738281
1403,-4.375,-8.4375,-14.9375,0.1494141,-0.01904297,0.9458008,0.1767578,0.01367188,-0.1738281
1405,-3.625,-7.4375,-14.5625,0.1494141,-0.01904297,0.934082,0.1767578,0.01464844,-0.1738281
1406,-1.5625,-6.625,-14.125,0.1533203,-0.01513672,0.9262695,0.1767578,0.01611328,-0.1738281
1408,0.625,-5.5625,-13.375,0.1650391,-0.01904297,0.934082,0.1767578,0.01611328,-0.1738281
1409,2.8125,-5,-13.1875,0.1650391,-0.007324219,0.9301758,0.1767578,0.01464844,-0.1723633
1411,4.5,-5.4375,-12.6875,0.1494141,0,0.934082,0.1767578,0.01464844,-0.1738281
1412,6.75,-6.25,-12.8125,0.1298828,0.00390625,0.9536133,0.1767578,0.01464844,-0.1738281
1414,7.9375,-7.75,-12.9375,0.07568359,0.02685547,0.984375,0.175293,0.01611328,-0.1738281
1415,14.25,-6.375,-11.5625,-0.005371094,0.06201172,1.038574,0.1767578,0.01367188,-0.175293
1417,17.6875,-7.5625,-14.4375,0.01708984,0.08935547,1.003906,0.1767578,0.01367188,-0.175293
1418,19.625,-9.625,-18.625,0.01708984,0.03076172,0.9921875,0.1767578,0.01464844,-0.175293
1420,19.0625,-8.5,-20.3125,0.03662109,0.0078125,1.019531,0.1767578,0.01464844,-0.1723633
1421,13.1875,-4.8125,-19.375,0.09130859,0.04248047,1.015625,0.1767578,0.01464844,-0.1723633
1423,3.75,-0.875,-18.875,0.1220703,0.03076172,1.003906,0.1767578,0.01367188,-0.175293
1424,-3.625,-0.0625,-18.5625,0.1220703,0.01171875,0.9960938,0.1767578,0.01367188,-0.1738281
1426,-6.625,-1.5,-18.125,0.1069336,-0.03466797,0.9921875,0.1767578,0.01367188,-0.1738281
1427,-7.25,-3.5,-16.5,0.1142578,-0.04248047,0.9614258,0.1767578,0.01464844,-0.175293
1429,-7,-4.6875,-13.875,0.1416016,-0.02685547,0.9379883,0.175293,0.01611328,-0.175293
1430,-5.375,-6.1875,-11.375,0.1572266,-0.03076172,0.9301758,0.175293,0.01611328,-0.175293
1432,-1.125,-6.5,-8.125,0.1728516,-0.03076172,0.9301758,0.1767578,0.01708984,-0.1738281
1433,2.625,-7.4375,-7.9375,0.1767578,-0.03076172,0.9301758,0.1767578,0.01611328,-0.175293
1435,8.0625,-7.8125,-4.6875,0.1767578,-0.007324219,0.9418945,0.1767578,0.01611328,-0.175293
1436,11.9375,-9.25,-6.875,0.1455078,0.00390625,0.9575195,0.175293,0.01611328,-0.1738281
1438,13.125,-9.8125,-8.0625,0.1108398,-0.02294922,0.9765625,0.1767578,0.01464844,-0.1762695
1439,11.5,-9.4375,-9,0.1069336,-0.007324219,0.9921875,0.1767578,0.01464844,-0.1762695
1441,6.4375,-7.8125,-9.375,0.1108398,0.01953125,0.984375,0.1782227,0.01367188,-0.175293
1442,1.4375,-5.75,-9.1875,0.1259766,0.02685547,0.9726563,0.1767578,0.01464844,-0.1738281
1444,-2.3125,-4.6875,-9.625,0.1298828,0.03466797,0.9575195,0.1767578,0.01464844,-0.1738281
1445,-3.5,-6,-10,0.1220703,0.03857422,0.9536133,0.175293,0.01611328,-0.1723633
1447,-2.9375,-8.875,-10.5625,0.1108398,0.03857422,0.9648438,0.175293,0.01611328,-0.1738281
1448,-1.5,-12.75,-10.5625,0.09912109,0.05419922,0.9960938,0.175293,0.01611328,-0.1738281
1450,-0.125,-15.4375,-10.1875,0.08740234,0.06982422,1.019531,0.1767578,0.01464844,-0.175293
1451,0.625,-17.4375,-9.9375,0.07958984,0.07373047,1.062012,0.1743164,0.01708984,-0.1762695
1453,1,-17.8125,-10.3125,0.07177734,0.08544922,1.097168,0.1743164,0.01708984,-0.1762695
1454,0.8125,-16.5625,-10.625,0.07958984,0.08935547,1.12793,0.175293,0.01611328,-0.1738281
1456,-0.1875,-14.1875,-11.3125,0.07568359,0.08935547,1.147461,0.175293,0.01611328,-0.1777344
1457,-2.625,-10.6875,-11.8125,0.07958984,0.08935547,1.151367,0.175293,0.01611328,-0.1777344
1459,-5.5625,-6.9375,-12.5625,0.09130859,0.08154297,1.155273,0.1743164,0.01611328,-0.175293
1460,-9,-3.3125,-12.9375,0.09521484,0.06591797,1.12793,0.1728516,0.01611328,-0.175293
1462,-11.5,0,-13.3125,0.09912109,0.05419922,1.112305,0.1728516,0.01611328,-0.175293
1463,-13.6875,2.8125,-13.6875,0.1108398,0.03857422,1.081543,0.1743164,0.01855469,-0.1777344
1465,-14.625,5.0625,-13.25,0.1181641,0.02294922,1.058105,0.1767578,0.01708984,-0.1762695
1466,-14.5,6.6875,-12.6875,0.1259766,0.015625,1.027344,0.1767578,0.01708984,-0.1762695
1468,-13.3125,7.875,-11.875,0.1298828,0.0078125,0.9804688,0.175293,0.01855469,-0.1762695
1469,-11.875,7.875,-11.375,0.1181641,0,0.96875,0.1767578,0.02099609,-0.1762695
1471,-10.9375,7.3125,-10.4375,0.1142578,-0.003417969,0.949707,0.1767578,0.02099609,-0.1762695
1472,-9.75,5.5625,-9.8125,0.1108398,-0.01513672,0.9301758,0.1767578,0.01855469,-0.175293
1474,-8.1875,4.125,-9.875,0.1181641,-0.01513672,0.934082,0.1767578,0.02001953,-0.175293
1475,-6.8125,3.25,-10,0.1298828,-0.01513672,0.9301758,0.1767578,0.02001953,-0.175293
1477,-5.5625,3,-10.25,0.1298828,-0.01513672,0.9301758,0.175293,0.01855469,-0.1791992
1480,-4.6875,3.3125,-10.125,0.1298828,-0.003417969,0.918457,0.175293,0.01855469,-0.175293
1482,-4.25,3.5,-10.25,0.1259766,0.01171875,0.9262695,0.175293,0.01855469,-0.175293
1483,-3.625,2.625,-10.125,0.1142578,0.02294922,0.949707,0.175293,0.02001953,-0.1762695
1485,-3.0625,2.3125,-10.0625,0.1108398,0.04638672,0.96875,0.175293,0.02099609,-0.1777344
1486,-1.75,0.75,-9.625,0.1030273,0.04248047,0.9804688,0.175293,0.02099609,-0.1777344
1488,-0.4375,-0.875,-9.625,0.1108398,0.04638672,1.011719,0.1767578,0.02001953,-0.1762695
1489,0.125,-2.75,-9.125,0.1142578,0.04638672,1.023438,0.1767578,0.02099609,-0.1762695
1491,-0.1875,-5.3125,-8.625,0.1181641,0.03857422,1.03125,0.1767578,0.02099609,-0.1762695
1492,-1.375,-7.625,-7.625,0.1298828,0.03466797,1.038574,0.175293,0.02099609,-0.175293
1494,-3,-9.375,-6.125,0.1455078,0.02685547,1.050293,0.175293,0.02246094,-0.1738281
1495,-5.25,-9.9375,-4.125,0.1572266,0.02294922,1.050293,0.175293,0.02246094,-0.1738281
1497,-6.8125,-10.625,-2.0625,0.1650391,0.02294922,1.058105,0.175293,0.02099609,-0.1738281
1498,-8.375,-11.0625,-0.1875,0.1650391,0.015625,1.046387,0.175293,0.02099609,-0.175293
1500,-9.4375,-10.875,1.875,0.1494141,0.02294922,1.058105,0.175293,0.02099609,-0.175293
1501,-9.875,-10.1875,3.125,0.1337891,0.02685547,1.058105,0.1743164,0.02099609,-0.175293
1503,-9.875,-9.3125,4.625,0.1220703,0.02685547,1.054199,0.1767578,0.02246094,-0.1762695
1504,-9.875,-7.8125,5.3125,0.1069336,0.03857422,1.03125,0.1767578,0.02246094,-0.1762695
1506,-9.875,-6.5625,5.0625,0.1030273,0.03466797,1.011719,0.175293,0.02246094,-0.1777344
1507,-9.8125,-5.25,4.75,0.09130859,0.03466797,0.9960938,0.1767578,0.02246094,-0.1777344
1509,-9.6875,-4.4375,3.875,0.09130859,0.02685547,0.9804688,0.1767578,0.02246094,-0.1777344
1510,-8.75,-2.8125,3.0625,0.07958984,0.02294922,0.9614258,0.175293,0.0234375,-0.1762695
1512,-7.5,-1.0625,2.4375,0.08349609,0.015625,0.9648438,0.175293,0.02099609,-0.1762695
1513,-5.6875,1.5,1.875,0.08740234,0.01171875,0.9575195,0.175293,0.02099609,-0.1762695
1515,-3.75,4.125,1.6875,0.1030273,0.0078125,0.949707,0.1743164,0.02246094,-0.1738281
1516,-2.125,6.125,1.125,0.1069336,-0.007324219,0.934082,0.175293,0.02246094,-0.175293
1518,-0.0625,7.1875,0.25,0.1142578,-0.01123047,0.9223633,0.175293,0.02246094,-0.175293
1519,1.5625,8.75,-0.5,0.1220703,-0.01904297,0.9262695,0.1767578,0.02246094,-0.1762695
1521,6.5,16.3125,1.25,0.1220703,-0.01123047,0.9262695,0.175293,0.02099609,-0.1777344
1522,4.75,18.125,1.3125,0.1376953,0.01953125,0.8681641,0.175293,0.02099609,-0.1777344
1524,6.125,18.125,1.375,0.1220703,-0.02294922,0.8837891,0.175293,0.02099609,-0.175293
1525,9.0625,16.0625,1.125,0.1108398,-0.03466797,0.8681641,0.1767578,0.02246094,-0.1738281
1527,10.5625,12.5625,0.25,0.1069336,-0.01904297,0.8681641,0.1767578,0.02246094,-0.1738281
1528,10.9375,9.0625,-0.875,0.1108398,-0.01123047,0.8759766,0.1767578,0.02099609,-0.1762695
1530,11.0625,6.625,-0.6875,0.09521484,-0.01123047,0.9145508,0.1767578,0.02099609,-0.1738281
1531,11.4375,4.8125,-0.9375,0.1030273,-0.003417969,0.9262695,0.1767578,0.02099609,-0.1738281
1533,10.5625,3.5625,0.0625,0.09912109,0,0.949707,0.1767578,0.02001953,-0.1738281
1534,10.1875,1.75,1.0625,0.08740234,-0.01904297,0.949707,0.1767578,0.02099609,-0.1738281
1536,9,-0.5625,2.5,0.09912109,-0.007324219,0.96875,0.1767578,0.02099609,-0.1738281
1537,7,-1.875,2.625,0.1108398,0,0.984375,0.175293,0.02099609,-0.175293
1539,3.9375,-2.125,3.875,0.1337891,0.00390625,1.003906,0.1782227,0.02099609,-0.1738281
1540,1.3125,-2.3125,5.5,0.1376953,-0.007324219,1.019531,0.1782227,0.02099609,-0.1738281
1542,-0.625,-2.6875,7.4375,0.1298828,-0.02685547,1.03125,0.175293,0.02099609,-0.1738281
1543,-2.4375,-3.5625,11.5,0.1455078,-0.03857422,1.03125,0.1767578,0.02246094,-0.1738281
1545,-6.25,-5.0625,11.5625,0.1806641,0.00390625,1.015625,0.1767578,0.02246094,-0.1738281
1546,-9.125,-5.25,11.6875,0.1884766,-0.01513672,1.023438,0.1782227,0.02099609,-0.175293
1548,-10.625,-4.75,11.8125,0.1962891,-0.003417969,1.027344,0.1782227,0.02099609,-0.175293
1549,-11.25,-5,11.4375,0.1845703,-0.007324219,0.9960938,0.1782227,0.02099609,-0.175293
1551,-11.375,-6.0625,11.1875,0.1650391,-0.01513672,0.984375,0.1767578,0.02099609,-0.175293
1552,-10,-7.75,10.875,0.1494141,-0.01513672,0.9648438,0.175293,0.02099609,-0.1762695
1554,-8,-8.75,9.8125,0.1298828,-0.003417969,0.9765625,0.175293,0.02099609,-0.1762695
1555,-5.75,-8.4375,8.375,0.1069336,0.00390625,0.9726563,0.1782227,0.02001953,-0.175293
1557,-3.125,-6.9375,7.4375,0.1030273,0.015625,0.9765625,0.1767578,0.02099609,-0.1777344
1558,-3.375,-5.125,5.875,0.09130859,0.02294922,0.9765625,0.1767578,0.02099609,-0.1777344
1560,-2.5,-3.6875,4.5,0.07568359,0.02685547,0.96875,0.175293,0.02001953,-0.175293
1561,-1.5,-2.0625,2.75,0.07177734,0.01953125,0.96875,0.175293,0.01855469,-0.175293
1563,-0.9375,-0.75,2,0.06396484,0.015625,0.9882813,0.175293,0.01855469,-0.175293
1564,1,0.75,1.375,0.07958984,0.01171875,0.9921875,0.1767578,0.02001953,-0.175293
1566,2.4375,3,1.1875,0.09130859,0,0.9960938,0.1767578,0.02001953,-0.175293
1567,4.25,5.0625,1.8125,0.1142578,-0.01513672,1.003906,0.1767578,0.02001953,-0.175293
1569,4.75,6.875,2.6875,0.1337891,-0.007324219,1,0.1767578,0.01708984,-0.175293
1570,6,8.875,3.375,0.1416016,-0.01904297,1.007813,0.1767578,0.02001953,-0.175293
1572,5.625,10.625,5.5625,0.1416016,-0.03076172,1,0.1767578,0.02001953,-0.175293
1573,2.9375,9.1875,5.9375,0.1455078,-0.003417969,0.984375,0.1767578,0.02001953,-0.1738281
1575,1.25,6.875,6.5625,0.1298828,-0.01123047,0.984375,0.1782227,0.01855469,-0.1762695
1577,0.9375,3.875,7.3125,0.1220703,-0.01904297,1,0.1782227,0.01855469,-0.1762695
1579,3.25,2.5625,7.75,0.1220703,-0.01904297,0.984375,0.1791992,0.01708984,-0.175293
1580,1.9375,-1.125,9.5625,0.09521484,-0.01123047,0.9960938,0.1767578,0.01855469,-0.175293
1582,1.4375,-3.5625,11.75,0.1030273,-0.007324219,1.003906,0.1767578,0.01855469,-0.175293
1583,0.375,-5,13,0.1069336,-0.003417969,0.984375,0.1767578,0.01708984,-0.1738281
1585,-1.4375,-6.75,14.0625,0.1181641,-0.01123047,0.9960938,0.1782227,0.01855469,-0.1777344
1586,-2.8125,-7.75,14.625,0.1298828,-0.01904297,1.011719,0.1782227,0.01855469,-0.1777344
1588,-4.0625,-8.3125,15.375,0.1259766,-0.01123047,0.9960938,0.1782227,0.01611328,-0.1762695
1589,-5.25,-8.875,14.875,0.1494141,-0.007324219,0.9882813,0.1782227,0.01855469,-0.175293
1591,-6.125,-9.9375,14.125,0.1416016,-0.02685547,0.9921875,0.1782227,0.01855469,-0.175293
1592,-7.0625,-10.9375,14.8125,0.1298828,-0.03076172,0.9882813,0.1782227,0.01611328,-0.1777344
1594,-6.5625,-11.1875,15.125,0.1220703,-0.03076172,1.011719,0.1767578,0.01611328,-0.1762695
1595,-6.5,-11.375,14.3125,0.1220703,-0.007324219,1.003906,0.1767578,0.01611328,-0.1762695
1597,-6.375,-11.625,11.875,0.1220703,0.015625,1.003906,0.1767578,0.01708984,-0.1777344
1598,-5.3125,-10,9.5625,0.1220703,0.015625,1.011719,0.1767578,0.01708984,-0.1762695
1600,-3.1875,-8.0625,7.25,0.1220703,0.0078125,1.027344,0.1767578,0.01708984,-0.1762695
1601,-2,-6.5,5.4375,0.1181641,0.01171875,1.003906,0.1791992,0.01464844,-0.1738281
1603,1.375,-3.375,3.9375,0.1181641,-0.003417969,1.027344,0.1782227,0.01708984,-0.175293
1604,2.6875,-1.4375,3.125,0.1181641,0,1,0.1782227,0.01708984,-0.175293
1606,4.875,1.75,2.375,0.1298828,-0.007324219,1.007813,0.1767578,0.01611328,-0.175293
1607,6.25,4.4375,2.1875,0.1416016,-0.003417969,1.015625,0.1767578,0.01464844,-0.1762695
1609,7.5,8,2.25,0.1494141,-0.01123047,1.007813,0.1767578,0.01464844,-0.1762695
1610,7.8125,11,2.8125,0.1650391,-0.01904297,1.003906,0.1782227,0.01464844,-0.175293
1612,7.5,12.6875,3.5,0.1806641,-0.01904297,1.011719,0.1782227,0.01464844,-0.175293
1613,6.8125,13.3125,5,0.1923828,-0.02685547,1.007813,0.1782227,0.01464844,-0.175293
1615,4.875,12.6875,6.3125,0.1806641,-0.02685547,1.007813,0.1791992,0.01611328,-0.175293
1616,4.75,10.75,7.625,0.1884766,-0.02685547,1.023438,0.1791992,0.01464844,-0.1777344
1618,4.3125,8.625,8.9375,0.1884766,-0.03076172,1.046387,0.1791992,0.01464844,-0.1777344
1619,4.625,7.0625,9.8125,0.1884766,-0.02685547,1.065918,0.1782227,0.01367188,-0.1738281
1621,5.0625,5.8125,10.4375,0.1767578,-0.01513672,1.089355,0.1791992,0.01367188,-0.175293
1622,4.375,5.75,10.75,0.1572266,-0.007324219,1.108887,0.1791992,0.01367188,-0.175293
1624,4.0625,6.875,10.625,0.1298828,0.0078125,1.112305,0.1782227,0.01367188,-0.1738281
1625,4.1875,9.25,10.3125,0.1142578,0.01171875,1.116211,0.1791992,0.01220703,-0.175293
1627,4.5,12.375,9.9375,0.08740234,0.015625,1.124023,0.1791992,0.01220703,-0.175293
1628,8.625,-5.875,18.625,0.001464844,0.1049805,1.236816,0.1782227,0.01220703,-0.1762695
1630,52.0625,-47.4375,25.125,-0.01708984,0.1318359,1.500488,0.1806641,0.01464844,-0.1738281
1631,127.625,-65.8125,18.8125,0.2158203,0.06201172,1.294922,0.1806641,0.01464844,-0.1738281
1633,167.125,-63.5,10.4375,0.3359375,0.02685547,1.069824,0.1791992,0.01123047,-0.1762695
1634,165,-55,17,0.3012695,-0.07714844,0.9765625,0.1782227,0.009765625,-0.1777344
1636,140,-42.5,24.625,0.2348633,-0.04638672,1.019531,0.1782227,0.009765625,-0.1777344
1637,105.4375,-29.3125,27.5625,0.1689453,0.00390625,1.07373,0.1782227,0.004882813,-0.1806641
1639,75.3125,-14.5625,28.0625,0.1455078,0.05029297,1.101074,0.1782227,0.003417969,-0.1791992
1640,55.125,2.625,26.5625,0.1533203,0.06982422,1.077637,0.1782227,0.003417969,-0.1791992
1642,43.3125,20.5,24.375,0.1611328,0.08154297,1.038574,0.175293,0.003417969,-0.1806641
1643,37.8125,37.75,21.8125,0.1494141,0.08154297,1.007813,0.1782227,0.0009765625,-0.1791992
1645,32.375,52.9375,19.4375,0.1181641,0.07763672,0.9765625,0.1782227,0.0009765625,-0.1791992
1646,26.8125,65.25,18.5,0.07958984,0.06201172,0.9418945,0.175293,0.002441406,-0.1791992
1648,19.125,73.625,17.875,0.06396484,0.05029297,0.9145508,0.1791992,-0.0009765625,-0.1806641
1649,11.25,79.6875,16.9375,0.03662109,0.05810547,0.8989258,0.1791992,-0.0009765625,-0.1806641
1651,5.375,85,16.9375,0.01708984,0.04248047,0.8989258,0.1791992,0.0009765625,-0.1777344
1652,2.125,84.3125,18.875,-0.009277344,0.01953125,0.918457,0.1806641,0,-0.175293
1654,-1.375,82.625,18.3125,-0.001464844,0.06982422,0.8950195,0.1806641,0,-0.175293
1655,-4.5625,76.9375,17.0625,-0.005371094,0.08154297,0.8989258,0.1806641,-0.0009765625,-0.1738281
1657,-7.1875,71.25,15.875,-0.01318359,0.07763672,0.9106445,0.184082,0,-0.175293
1658,-8.375,65.8125,14.8125,-0.02880859,0.06591797,0.9145508,0.184082,0,-0.175293
1660,-9.125,59.75,14.25,-0.02490234,0.04248047,0.9106445,0.184082,-0.001953125,-0.1723633
1661,-10,53.8125,14.3125,-0.02490234,0.03466797,0.8876953,0.184082,-0.001953125,-0.1723633
1663,-9.5625,48.125,14.6875,-0.005371094,0.02685547,0.8642578,0.184082,-0.001953125,-0.1723633
1664,-9.0625,42.0625,15.75,0.001464844,0.03076172,0.8642578,0.1855469,-0.001953125,-0.1713867
1666,-7.3125,36.5625,16.4375,0.009277344,0.02294922,0.8564453,0.1855469,-0.003417969,-0.168457
1667,-5,31.4375,18.5,0.009277344,0.0078125,0.8603516,0.1855469,-0.003417969,-0.168457
1669,-2.3125,26,19.875,0.04052734,0.02685547,0.8486328,0.1855469,-0.001953125,-0.1699219
1670,-0.5,19.3125,19.4375,0.08740234,0.04638672,0.8447266,0.1879883,-0.004882813,-0.1713867
1672,2.9375,12.625,18.8125,0.09130859,0.04638672,0.8642578,0.1879883,-0.004882813,-0.1713867
1675,8.125,6.75,19.3125,0.07958984,0.03466797,0.8876953,0.1865234,-0.003417969,-0.168457
1677,13.0625,0,20.0625,0.06787109,0.03076172,0.8989258,0.1865234,-0.004882813,-0.168457
1678,17.3125,-7.5625,20.9375,0.06396484,0.02294922,0.8876953,0.1865234,-0.004882813,-0.168457
1680,20.875,-15.5,22.5625,0.06787109,0.00390625,0.8876953,0.1855469,-0.005859375,-0.1699219
1681,23.25,-22.5625,24.875,0.08349609,-0.003417969,0.8720703,0.1865234,-0.005859375,-0.1674805
1683,23.9375,-29.9375,26.9375,0.08740234,-0.01513672,0.8681641,0.1865234,-0.005859375,-0.1674805
1684,24.5625,-36.375,30.125,0.1030273,-0.01904297,0.8798828,0.1855469,-0.007324219,-0.1699219
1686,26.375,-41.25,33.6875,0.1181641,-0.03076172,0.8720703,0.1865234,-0.007324219,-0.1699219
1687,25.5625,-44.4375,35.125,0.1455078,-0.003417969,0.8837891,0.1865234,-0.007324219,-0.1699219
1689,25.5,-45.125,37.375,0.1416016,-0.01904297,0.9223633,0.1855469,-0.007324219,-0.1713867
1690,27.9375,-43.0625,38.9375,0.1416016,0.0078125,0.949707,0.184082,-0.009765625,-0.1723633
1692,30.5625,-40.3125,38.875,0.1108398,0.03076172,0.9614258,0.184082,-0.009765625,-0.1723633
1693,33,-37.6875,38.5,0.08740234,0.04638672,0.9648438,0.1855469,-0.01074219,-0.175293
1695,35.9375,-36.0625,38.25,0.06005859,0.06982422,0.96875,0.184082,-0.01220703,-0.1738281
1696,33.3125,-34.5,35.125,0.06396484,0.07373047,0.9648438,0.184082,-0.01220703,-0.1738281
1698,22.0625,-31.375,31.9375,0.05224609,0.05419922,0.9765625,0.184082,-0.01318359,-0.1762695
1699,15.5,-26.0625,31.0625,0.05224609,0.05029297,0.9960938,0.184082,-0.01464844,-0.1791992
1701,10.4375,-21.1875,31.0625,0.04052734,0.06591797,0.9882813,0.184082,-0.01464844,-0.1791992
1702,5.875,-17.375,28.75,0.04833984,0.06201172,0.9804688,0.1831055,-0.01464844,-0.1777344
1704,1.6875,-15,29.8125,0.06005859,0.03466797,0.96875,0.1831055,-0.01464844,-0.1738281
1705,2.8125,-15.75,32.4375,0.06787109,0.02294922,0.934082,0.1831055,-0.01464844,-0.1738281
1707,0.5625,-16,32.3125,0.06787109,0.015625,0.9262695,0.1831055,-0.01611328,-0.175293
1708,-3.5625,-15.5625,33.875,0.07958984,0,0.9301758,0.1831055,-0.01464844,-0.175293
1710,-6.25,-13.4375,38.0625,0.07958984,-0.03076172,0.9145508,0.1831055,-0.01464844,-0.175293
1711,-0.875,-13.75,44.5,0.09130859,0.00390625,0.8876953,0.1831055,-0.01855469,-0.1762695
1713,5.0625,-15.5,47.6875,0.09130859,0.02294922,0.8798828,0.1831055,-0.01708984,-0.1777344
1714,6.5,-16.375,48.625,0.07177734,0.01953125,0.8876953,0.1831055,-0.01708984,-0.1777344
1716,11.1875,-17.3125,51.8125,0.06396484,0.03466797,0.9379883,0.1816406,-0.01953125,-0.1762695
1717,25.75,-17.5625,50.875,0.08349609,0.1357422,1.03125,0.1831055,-0.01953125,-0.1762695
1719,43.4375,-20.8125,45.3125,0.1259766,0.1982422,1.046387,0.1831055,-0.01953125,-0.1762695
1720,60.5,-27.6875,39.0625,0.1259766,0.2290039,1.019531,0.1831055,-0.0234375,-0.1762695
1722,73.5,-35.25,33.4375,0.1181641,0.2094727,0.984375,0.1831055,-0.0234375,-0.1777344
1723,81.5625,-41.625,31.8125,0.09521484,0.1201172,0.9648438,0.1831055,-0.0234375,-0.1777344
1725,88.625,-45.875,30.0625,0.08349609,0.09716797,0.9575195,0.1806641,-0.02587891,-0.1777344
1726,93.625,-46.875,28.4375,0.09912109,0.08154297,0.9726563,0.1806641,-0.02734375,-0.1791992
1728,93.125,-44.0625,30.3125,0.1181641,0.05810547,0.9921875,0.1806641,-0.02734375,-0.1791992
1729,93.5625,-38.75,31.5625,0.1455078,0.1201172,0.9960938,0.1791992,-0.02832031,-0.1777344
1731,91.3125,-31.875,32.5625,0.1572266,0.1318359,0.9726563,0.1782227,-0.03222656,-0.1816406
1732,98.6875,-28.0625,30.8125,0.1650391,0.1826172,0.9418945,0.1782227,-0.03222656,-0.1816406
1734,102.25,-27.125,31.5625,0.1337891,0.1357422,0.9223633,0.1791992,-0.03222656,-0.1791992
1735,98.4375,-26.125,32.625,0.1181641,0.1201172,0.918457,0.1782227,-0.03564453,-0.1791992
1737,98.3125,-27.6875,31.1875,0.1069336,0.1591797,0.8911133,0.1782227,-0.03564453,-0.1791992
1738,101.75,-32.25,32.5625,0.07958984,0.1279297,0.8911133,0.1767578,-0.03710938,-0.1806641
1740,100.375,-36.625,35,0.07958984,0.1201172,0.9145508,0.1782227,-0.03857422,-0.1806641
1741,85.75,-38,36.125,0.09521484,0.1357422,0.9145508,0.1782227,-0.03857422,-0.1806641
1743,79.6875,-40.9375,35,0.1181641,0.1748047,0.902832,0.1782227,-0.03857422,-0.1816406
1744,73.3125,-45.75,34.6875,0.1416016,0.2329102,0.9301758,0.1782227,-0.04199219,-0.1816406
1746,75,-51.3125,32.5625,0.1689453,0.2719727,0.9614258,0.1782227,-0.04199219,-0.1816406
1747,74.375,-56.125,35.0625,0.1650391,0.2329102,1.003906,0.175293,-0.04443359,-0.1816406
1749,71.6875,-59.5,35.625,0.1845703,0.2407227,1.054199,0.1743164,-0.04736328,-0.1816406
1750,67.875,-61.5,36.75,0.1845703,0.2055664,1.065918,0.1743164,-0.04736328,-0.1816406
1752,63.375,-61.875,37.5625,0.2119141,0.2021484,1.077637,0.1743164,-0.04736328,-0.1845703
1753,60.5,-60.6875,37.5,0.2270508,0.2407227,1.077637,0.171875,-0.05078125,-0.1855469
1755,57.1875,-57.875,37.3125,0.230957,0.2329102,1.069824,0.171875,-0.05078125,-0.1855469
1756,51.6875,-54.4375,37.1875,0.2270508,0.2446289,1.046387,0.1728516,-0.05224609,-0.1855469
1758,45.4375,-50.875,36.625,0.2197266,0.2563477,1.019531,0.171875,-0.05224609,-0.1855469
1759,35.8125,-47,35.25,0.2080078,0.2602539,1,0.171875,-0.05224609,-0.1855469
1761,22.6875,-41.75,34.5625,0.1923828,0.2641602,0.9921875,0.1704102,-0.0546875,-0.1870117
1762,10.25,-37.0625,32.3125,0.1767578,0.2954102,0.9804688,0.1704102,-0.05712891,-0.1870117
1764,2.625,-32.3125,31.125,0.1455078,0.2875977,0.9921875,0.1704102,-0.05712891,-0.1870117
1765,-4.625,-28.0625,29.0625,0.1259766,0.2719727,0.9882813,0.1694336,-0.05322266,-0.1855469
1767,-9.9375,-23.75,25.5625,0.1337891,0.2641602,0.9804688,0.1679688,-0.0546875,-0.1884766
1768,-15.625,-19.25,21.5,0.1494141,0.2485352,0.9804688,0.1679688,-0.0546875,-0.1884766
1770,-23.125,-13.6875,17,0.1806641,0.2446289,0.96875,0.1679688,-0.05712891,-0.1884766
1772,-24.5625,-9.625,12.75,0.1845703,0.2485352,0.9648438,0.1679688,-0.05712891,-0.1899414
1774,-27.5,-6.4375,9.4375,0.1923828,0.2368164,0.9614258,0.1679688,-0.05712891,-0.1899414
1775,-32.1875,-1.875,6.9375,0.2119141,0.2407227,0.9882813,0.1679688,-0.05566406,-0.1884766
1777,-36.6875,7,1.75,0.1728516,0.2602539,1.069824,0.1679688,-0.05566406,-0.1884766
1778,-40.5625,16.1875,0.0625,0.2119141,0.2407227,1.101074,0.1679688,-0.05566406,-0.1884766
1780,-44.4375,24.625,-0.25,0.2583008,0.2446289,1.139648,0.1679688,-0.05566406,-0.1884766
1781,-43.3125,31.0625,-0.6875,0.3012695,0.2133789,1.143555,0.1694336,-0.0546875,-0.1884766
1783,-43.125,34.75,-1.3125,0.324707,0.1904297,1.112305,0.1694336,-0.0546875,-0.1884766
1784,-42.0625,36.25,0.0625,0.3286133,0.1474609,1.069824,0.1704102,-0.0546875,-0.1884766
1786,-41.25,35.625,3.8125,0.3325195,0.1201172,1.003906,0.1694336,-0.05322266,-0.1884766
1787,-39.5,33.1875,8.625,0.3398438,0.1049805,0.9379883,0.1694336,-0.05322266,-0.1884766
1789,-36.5,27.5625,14.3125,0.3208008,0.07373047,0.8798828,0.1694336,-0.05322266,-0.1884766
1790,-29.5,20.125,20.5,0.3012695,0.06591797,0.8720703,0.1704102,-0.05224609,-0.1884766
1792,-20.8125,14.125,26,0.2700195,0.09716797,0.8720703,0.1704102,-0.05224609,-0.1884766
1793,-13.75,7.4375,29.6875,0.246582,0.1088867,0.8525391,0.171875,-0.05224609,-0.1884766
1795,-11.25,0,31.8125,0.2080078,0.1435547,0.8408203,0.1694336,-0.05078125,-0.1899414
1796,-8.8125,-7.0625,33.0625,0.1689453,0.1513672,0.8447266,0.1694336,-0.05078125,-0.1899414
1798,-7.9375,-13.25,33.8125,0.1337891,0.1708984,0.8759766,0.171875,-0.0546875,-0.1870117
1799,-5.6875,-17.9375,32.5625,0.1259766,0.1787109,0.902832,0.1704102,-0.0546875,-0.1870117
1801,-3.1875,-20.75,31.125,0.1337891,0.1787109,0.918457,0.1704102,-0.0546875,-0.1870117
1802,-0.625,-21.1875,28.75,0.1416016,0.1787109,0.9301758,0.1704102,-0.05566406,-0.1899414
1804,1.9375,-20.8125,26,0.1572266,0.1826172,0.949707,0.1704102,-0.05566406,-0.190918
1805,5.5625,-18.8125,22.5625,0.1767578,0.1865234,0.9614258,0.1704102,-0.05566406,-0.190918
1807,10.4375,-17.0625,18.9375,0.2001953,0.1904297,0.984375,0.1679688,-0.05712891,-0.190918
1808,20.75,-14.6875,15.375,0.1962891,0.1787109,0.9418945,0.1694336,-0.05859375,-0.190918
1810,32.875,-11,13.8125,0.2504883,0.1748047,0.8798828,0.1694336,-0.05859375,-0.190918
1811,43.0625,-3.875,16.1875,0.2700195,0.1826172,0.8798828,0.1679688,-0.05712891,-0.1899414
1813,50.625,0.5,11.0625,0.2583008,0.1904297,0.8720703,0.1679688,-0.05712891,-0.1884766
1814,58.5625,-1.875,6.5625,0.2119141,0.1513672,0.9067383,0.1679688,-0.05712891,-0.1884766
1816,66.8125,-7.9375,5,0.1962891,0.1787109,0.9301758,0.1694336,-0.05957031,-0.1870117
1817,73.125,-13.25,4.3125,0.2158203,0.2021484,0.96875,0.1679688,-0.05957031,-0.1899414
1819,74.75,-13.0625,2.875,0.246582,0.2290039,0.9960938,0.1679688,-0.05957031,-0.1899414
1820,72.4375,-8.4375,1,0.2700195,0.2211914,1.027344,0.1679688,-0.06103516,-0.1884766
1822,65.8125,-2.8125,-0.375,0.2817383,0.2211914,1.011719,0.1694336,-0.06445313,-0.1884766
1823,58.75,1.125,-1.1875,0.262207,0.2211914,1.003906,0.1694336,-0.06445313,-0.1884766
1825,51.625,2.625,-1.375,0.2543945,0.2368164,0.9648438,0.1679688,-0.06445313,-0.1884766
1826,44.0625,4.75,0,0.246582,0.2407227,0.9614258,0.1679688,-0.06347656,-0.1884766
1828,33.875,8.625,2.375,0.2426758,0.2602539,0.9614258,0.1679688,-0.06347656,-0.1884766
1829,20.8125,12.3125,4.1875,0.277832,0.2758789,0.9536133,0.1694336,-0.06445313,-0.1884766
1831,8.1875,15.125,6.8125,0.2661133,0.2758789,0.96875,0.1694336,-0.06445313,-0.1870117
1832,0.8125,15.4375,9.0625,0.2387695,0.2446289,0.9614258,0.1694336,-0.06445313,-0.1870117
1834,-3.8125,14,10,0.2197266,0.2250977,0.949707,0.1694336,-0.06591797,-0.1870117
1835,-7.0625,12,11.4375,0.2001953,0.2172852,0.934082,0.1694336,-0.06591797,-0.1845703
1837,-9.1875,9.0625,13.5625,0.1962891,0.2055664,0.9223633,0.1694336,-0.06591797,-0.1845703
1838,-11.625,6.5,15.9375,0.1923828,0.2211914,0.9067383,0.1694336,-0.06689453,-0.1855469
1840,-15.375,5.8125,17.9375,0.1923828,0.2290039,0.902832,0.1694336,-0.06835938,-0.1855469
1841,-16.3125,5.3125,17.8125,0.1767578,0.2172852,0.8950195,0.1694336,-0.06835938,-0.1855469
1843,-14.9375,4.3125,16.5,0.1650391,0.2021484,0.8950195,0.1704102,-0.06689453,-0.1855469
1844,-10.625,1.4375,15.375,0.1533203,0.1865234,0.8911133,0.1679688,-0.06835938,-0.1870117
1846,-7.9375,-0.75,15.5,0.1572266,0.1943359,0.8876953,0.1679688,-0.06835938,-0.1870117
1847,-7.3125,-0.5625,15.6875,0.1455078,0.2094727,0.8759766,0.1679688,-0.06689453,-0.1855469
1849,-6.5625,0.125,14.6875,0.1494141,0.2055664,0.8720703,0.1694336,-0.06445313,-0.1884766
1850,-4.6875,1.0625,13.5625,0.1533203,0.2021484,0.8681641,0.1694336,-0.06445313,-0.1884766
1852,-2.25,1.4375,12.8125,0.1728516,0.1943359,0.8564453,0.1694336,-0.06689453,-0.1855469
1853,0,1.3125,12.375,0.1884766,0.1943359,0.8681641,0.1694336,-0.06689453,-0.1855469
1855,3.1875,0.625,12.25,0.2041016,0.1787109,0.8798828,0.1694336,-0.06689453,-0.1855469
1856,5.5,-1.625,11.0625,0.2080078,0.1787109,0.8837891,0.1679688,-0.06835938,-0.1884766
1858,4.8125,-1.5625,11.4375,0.2270508,0.2021484,0.918457,0.1704102,-0.06835938,-0.1870117
1859,0.625,2,12.375,0.246582,0.2172852,0.918457,0.1704102,-0.06835938,-0.1870117
1861,-2.125,6.3125,11.875,0.246582,0.2021484,0.9536133,0.1704102,-0.06835938,-0.1855469
1862,-2.375,9.4375,10.5625,0.262207,0.2094727,0.9418945,0.1694336,-0.06835938,-0.1899414
1864,-2.4375,10,8.75,0.2504883,0.1943359,0.9458008,0.1694336,-0.06835938,-0.1899414
1865,-0.1875,11.125,7.8125,0.2348633,0.1943359,0.9575195,0.1679688,-0.06982422,-0.1845703
1867,0.5,11.1875,6.9375,0.230957,0.2133789,0.9301758,0.1694336,-0.07080078,-0.1870117
1870,1.5625,12.4375,5.625,0.2197266,0.2094727,0.949707,0.1694336,-0.07080078,-0.1870117
1872,3.3125,13.8125,4.8125,0.2158203,0.2021484,0.9418945,0.171875,-0.06982422,-0.1870117
1873,5.125,15.75,4.4375,0.2158203,0.1982422,0.9536133,0.1704102,-0.07080078,-0.1855469
1875,7.125,18.5625,3.75,0.2119141,0.1943359,0.9575195,0.1704102,-0.07080078,-0.1855469
1876,9.125,22.125,3.5625,0.2158203,0.1982422,0.9575195,0.1704102,-0.07080078,-0.1855469
1878,12.0625,26.5,3.625,0.2001953,0.1865234,0.9726563,0.171875,-0.07080078,-0.1855469
1879,14.875,28.0625,3.4375,0.2197266,0.1865234,0.9458008,0.171875,-0.07080078,-0.1855469
1881,16.6875,29.375,3.5625,0.2197266,0.1904297,0.949707,0.1704102,-0.07080078,-0.1845703
1882,17.6875,29.9375,4.625,0.2041016,0.2021484,0.949707,0.171875,-0.06982422,-0.1831055
1884,18.0625,30.75,5,0.2041016,0.2021484,0.9418945,0.171875,-0.06982422,-0.1831055
1885,18.1875,32.4375,5.75,0.1884766,0.2055664,0.9418945,0.171875,-0.07226563,-0.1845703
1887,17.0625,34.5625,6.9375,0.1650391,0.1904297,0.9575195,0.171875,-0.07324219,-0.1831055
1888,15.1875,37.0625,8.625,0.1845703,0.2172852,0.9223633,0.171875,-0.07324219,-0.1831055
1890,12.375,36.875,8.75,0.1845703,0.2133789,0.9223633,0.175293,-0.07324219,-0.1816406
1891,10.625,36.625,9.5,0.1728516,0.2172852,0.9262695,0.1743164,-0.07470703,-0.1816406
1893,9.0625,35.8125,10.8125,0.1611328,0.2211914,0.918457,0.1743164,-0.07470703,-0.1816406
1894,8.0625,34.0625,11.375,0.1611328,0.2290039,0.9106445,0.1743164,-0.07324219,-0.1806641
1896,7.6875,32,12.5,0.1494141,0.2172852,0.9106445,0.1743164,-0.07568359,-0.1806641
1897,7.4375,30.3125,13.0625,0.1533203,0.2290039,0.9067383,0.1743164,-0.07568359,-0.1806641
1899,7.75,27.0625,13,0.1650391,0.2211914,0.8989258,0.1743164,-0.07470703,-0.1777344
1900,7.8125,23.9375,12.75,0.1611328,0.2329102,0.9067383,0.1728516,-0.07470703,-0.1777344
1902,6.8125,21.625,13,0.1611328,0.2368164,0.9067383,0.1728516,-0.07470703,-0.1777344
1903,6.1875,20.3125,12.5,0.1650391,0.2485352,0.918457,0.1728516,-0.07714844,-0.1777344
1905,4.4375,19.375,11.1875,0.1611328,0.2446289,0.918457,0.1743164,-0.07714844,-0.1777344
1906,2.125,19.125,10.9375,0.1728516,0.2407227,0.9106445,0.1743164,-0.07714844,-0.1777344
1908,-0.125,18.75,10,0.1767578,0.2524414,0.902832,0.175293,-0.07714844,-0.1777344
1909,-2.4375,18.5,9.125,0.1806641,0.2485352,0.9145508,0.175293,-0.07714844,-0.1777344
1911,-5.8125,21.0625,8.1875,0.1767578,0.2563477,0.934082,0.175293,-0.07714844,-0.1777344
1912,-10.625,22.125,6.1875,0.1884766,0.2719727,0.9262695,0.1767578,-0.07714844,-0.1791992
1914,-12.9375,20.9375,6.1875,0.2041016,0.2524414,0.9223633,0.175293,-0.07714844,-0.1777344
1915,-12.5625,16.9375,6.6875,0.1923828,0.2446289,0.9067383,0.175293,-0.07714844,-0.1777344
1917,-11.25,12.5,7.5625,0.1689453,0.2290039,0.918457,0.1767578,-0.07958984,-0.1777344
1918,-11.3125,9.3125,8.1875,0.1689453,0.2446289,0.9223633,0.1767578,-0.07714844,-0.1777344
1920,-11.4375,7.4375,8.4375,0.1650391,0.2407227,0.934082,0.1767578,-0.07714844,-0.1777344
1921,-9.8125,7.3125,8.9375,0.1337891,0.2407227,0.9536133,0.1767578,-0.078125,-0.175293
1923,-9.4375,6,8.75,0.1572266,0.2290039,0.9262695,0.1767578,-0.07958984,-0.175293
1924,-10.8125,6.1875,10,0.1767578,0.2368164,0.9536133,0.1767578,-0.07958984,-0.175293
1926,-12.0625,6.8125,9.125,0.1689453,0.2602539,0.9536133,0.1767578,-0.078125,-0.175293
1927,-12.1875,6.8125,8.0625,0.1689453,0.2524414,0.9536133,0.1791992,-0.07958984,-0.1762695
1929,-11.6875,6.4375,7.3125,0.1611328,0.2329102,0.9536133,0.1791992,-0.07958984,-0.1762695
1930,-11.125,5.75,6.625,0.1533203,0.2368164,0.9418945,0.1767578,-0.078125,-0.1762695
1932,-9.875,5.1875,5.8125,0.1494141,0.2329102,0.9458008,0.1767578,-0.078125,-0.1738281
1933,-8.8125,4.6875,4.625,0.1455078,0.2250977,0.9418945,0.1767578,-0.078125,-0.1738281
1935,-5.25,3.875,-1,0.1455078,0.2368164,0.934082,0.175293,-0.078125,-0.175293
1936,-2.9375,3,-3.9375,0.1416016,0.2094727,0.9301758,0.1782227,-0.07714844,-0.1791992
1938,-1.375,3.0625,-2.5,0.1455078,0.2021484,0.934082,0.1782227,-0.07714844,-0.1791992
1939,0,3.25,-1.75,0.1572266,0.2329102,0.9379883,0.1782227,-0.078125,-0.1723633
1941,0,3.125,-2.375,0.1455078,0.2290039,0.9458008,0.1767578,-0.07958984,-0.175293
1942,-0.75,2.125,-3.125,0.1416016,0.2446289,0.9379883,0.1767578,-0.07958984,-0.175293
1944,-1.625,0.25,-3,0.1298828,0.2290039,0.9145508,0.1782227,-0.07958984,-0.1762695
1945,-2.6875,-2.4375,-2.0625,0.1220703,0.2290039,0.9223633,0.1782227,-0.078125,-0.175293
1947,-3.5625,-5.5625,-0.5625,0.1259766,0.2329102,0.9223633,0.1782227,-0.078125,-0.175293
1948,-3.625,-8.0625,-0.0625,0.1220703,0.2407227,0.918457,0.1767578,-0.078125,-0.175293
1950,-3.75,-9.8125,0.6875,0.1259766,0.2368164,0.9301758,0.1767578,-0.07958984,-0.175293
1951,-4.375,-10.9375,0.4375,0.1298828,0.2446289,0.9223633,0.1767578,-0.07958984,-0.175293
1953,-5.75,-11.5,-0.1875,0.1337891,0.2485352,0.9301758,0.1782227,-0.078125,-0.175293
1954,-6.9375,-11.5625,-0.875,0.1416016,0.2446289,0.9262695,0.1767578,-0.07958984,-0.1762695
1956,-8,-11.125,-1.1875,0.1416016,0.2407227,0.934082,0.1767578,-0.07958984,-0.1762695
1957,-9.0625,-11.25,-0.9375,0.1494141,0.2250977,0.9418945,0.175293,-0.07958984,-0.1762695
1959,-10.6875,-11.375,0.3125,0.1689453,0.2290039,0.9379883,0.1767578,-0.07958984,-0.1762695
1960,-11.9375,-11.25,1.3125,0.1728516,0.2211914,0.9536133,0.1767578,-0.07958984,-0.1762695
1962,-12.25,-10.8125,1.5625,0.1728516,0.2329102,0.9614258,0.175293,-0.078125,-0.175293
1963,-12.5,-9.6875,0.8125,0.1728516,0.2329102,0.9765625,0.175293,-0.07958984,-0.1777344
1965,-12.25,-8.25,-0.25,0.1728516,0.2329102,0.9726563,0.175293,-0.07958984,-0.1777344
1967,-11.5,-6.8125,-0.75,0.1728516,0.2329102,0.9765625,0.175293,-0.07958984,-0.1762695
1969,-10.5625,-6.625,-0.875,0.1767578,0.2329102,0.9536133,0.1767578,-0.08105469,-0.175293
1970,-10.25,-6.75,-1,0.1689453,0.2329102,0.949707,0.1767578,-0.08105469,-0.175293
1972,-10.4375,-7.3125,-1,0.1611328,0.2446289,0.9614258,0.1743164,-0.078125,-0.1762695
1973,-11.5625,-7.75,-1.625,0.1611328,0.2485352,0.9575195,0.175293,-0.07958984,-0.175293
1975,-12,-8.4375,-2.125,0.1533203,0.2485352,0.949707,0.175293,-0.07958984,-0.175293
1976,-12.25,-10.125,-2.125,0.1572266,0.2368164,0.949707,0.1743164,-0.07958984,-0.1777344
1978,-12.4375,-12.375,-1.75,0.1572266,0.2329102,0.9418945,0.175293,-0.078125,-0.1777344
1979,-12.4375,-14.875,-1.5625,0.1572266,0.2329102,0.9262695,0.175293,-0.078125,-0.1777344
1981,-12.1875,-17.75,-0.9375,0.1611328,0.2290039,0.9379883,0.1743164,-0.078125,-0.175293
1982,-11.4375,-20.3125,-0.25,0.1494141,0.2368164,0.934082,0.1743164,-0.078125,-0.1762695
1984,-10.5625,-22.9375,0.0625,0.1494141,0.2368164,0.9379883,0.1743164,-0.078125,-0.1762695
1985,-10.875,-24.5,-0.0625,0.1572266,0.2485352,0.9418945,0.1728516,-0.078125,-0.1762695
1987,-11.375,-25.125,-1.375,0.1767578,0.2602539,0.9418945,0.1728516,-0.078125,-0.1777344
1988,-11,-24.4375,-2.5,0.1962891,0.2563477,0.96875,0.1728516,-0.078125,-0.1777344
1990,-10,-23.1875,-3.125,0.2001953,0.2407227,0.9726563,0.171875,-0.078125,-0.1777344
1991,-8.4375,-22.125,-2.125,0.1923828,0.2133789,0.9726563,0.171875,-0.07958984,-0.1806641
1993,-6.75,-21.125,0.125,0.1806641,0.2133789,0.96875,0.171875,-0.07958984,-0.1806641
1994,-5.3125,-20.75,1.25,0.1689453,0.2211914,0.9726563,0.1728516,-0.07714844,-0.1791992
1996,-4.25,-20.1875,1.9375,0.1767578,0.2329102,0.9648438,0.1728516,-0.07714844,-0.1777344
1997,-3.875,-19.4375,2.75,0.1767578,0.2290039,0.9648438,0.1728516,-0.07714844,-0.1777344
1999,-2.75,-18.5625,3.5,0.1767578,0.2211914,0.96875,0.1704102,-0.078125,-0.1806641
2000,-1.75,-17.5625,5.125,0.1806641,0.2211914,0.96875,0.171875,-0.078125,-0.1806641
2002,-1.0625,-15.6875,7.625,0.1884766,0.2211914,0.9726563,0.171875,-0.078125,-0.1806641
2003,-0.375,-13.75,9.8125,0.1884766,0.2211914,0.9804688,0.1704102,-0.07714844,-0.1806641
2005,-0.5625,-10.4375,11.5625,0.1962891,0.2055664,0.9921875,0.171875,-0.078125,-0.1806641
2006,-0.75,-8.625,12.625,0.2119141,0.2133789,0.984375,0.171875,-0.078125,-0.1806641
2008,0.125,-8.5,14.375,0.2158203,0.2172852,0.9648438,0.1704102,-0.078125,-0.1806641
2009,1.8125,-6.75,17.4375,0.2041016,0.1904297,0.9960938,0.1694336,-0.07958984,-0.1791992
2011,3.375,-1.3125,20.5,0.2041016,0.1787109,1.015625,0.1694336,-0.07958984,-0.1791992
2012,4.25,2.6875,22.625,0.2080078,0.1826172,1.007813,0.1679688,-0.07958984,-0.1806641
2014,5.875,5.875,24.6875,0.2041016,0.1865234,1.011719,0.1694336,-0.07958984,-0.1791992
2015,7.1875,9.125,27.25,0.1962891,0.1904297,1.015625,0.1694336,-0.07958984,-0.1791992
2017,8.125,11.4375,29.4375,0.2001953,0.1826172,1.007813,0.1694336,-0.08105469,-0.1806641
2018,9.1875,12.4375,31.3125,0.1962891,0.1865234,1,0.1694336,-0.08105469,-0.1806641
2020,10.25,12.75,32.5625,0.1923828,0.1865234,1,0.1694336,-0.08105469,-0.1806641
2021,10.6875,12.8125,34.4375,0.2001953,0.1865234,0.9921875,0.1694336,-0.08105469,-0.1816406
2023,10.125,13.0625,37.6875,0.1962891,0.1669922,0.9882813,0.1694336,-0.08203125,-0.1816406
2024,12.625,12.875,40.875,0.1962891,0.1669922,1,0.1694336,-0.08203125,-0.1816406
2026,16.6875,11.9375,43.6875,0.1962891,0.1630859,0.9921875,0.1694336,-0.08447266,-0.1791992
2027,20.875,10.625,46,0.2080078,0.1669922,0.9882813,0.1694336,-0.08349609,-0.1806641
2029,26.25,9.875,48.6875,0.2119141,0.1435547,0.9921875,0.1694336,-0.08349609,-0.1806641
2030,28.625,9.3125,51.875,0.2270508,0.1435547,0.9614258,0.1694336,-0.08349609,-0.1762695
2032,25.875,9.1875,58.9375,0.2158203,0.08935547,0.9575195,0.1704102,-0.08691406,-0.1777344
2033,24,10,67.8125,0.2080078,0.08544922,0.9726563,0.1704102,-0.08691406,-0.1777344
2035,26.9375,12.6875,75.8125,0.2197266,0.112793,1,0.1679688,-0.08691406,-0.1762695
2036,30.625,16.3125,82.25,0.2270508,0.1318359,0.9921875,0.1679688,-0.08935547,-0.1762695
2038,32.875,20.25,88,0.2270508,0.1396484,0.9921875,0.1679688,-0.08935547,-0.1762695
2039,36.0625,24.875,92.0625,0.230957,0.1669922,0.984375,0.1669922,-0.09228516,-0.175293
2041,37.5,30.75,95.75,0.2270508,0.1708984,0.9921875,0.1669922,-0.09228516,-0.175293
2042,37,36.375,100.125,0.2041016,0.1669922,0.9726563,0.1669922,-0.09228516,-0.175293
2044,37,41.375,105.125,0.1962891,0.1630859,0.9648438,0.1669922,-0.09472656,-0.175293
2045,39.3125,46.5625,109.875,0.2001953,0.1513672,0.9614258,0.1655273,-0.09814453,-0.1723633
2047,41,50.875,114.8125,0.2001953,0.1630859,0.9379883,0.1655273,-0.09814453,-0.1723633
2048,43.1875,54.6875,119,0.2119141,0.1826172,0.8911133,0.1669922,-0.1005859,-0.1723633
2050,44.25,57.0625,122.4375,0.2158203,0.1865234,0.8876953,0.1645508,-0.1044922,-0.1713867
2051,47,59,125.25,0.2158203,0.2021484,0.8525391,0.1645508,-0.1044922,-0.1713867
2053,48.4375,61.875,126.8125,0.2158203,0.2250977,0.8251953,0.1645508,-0.1069336,-0.1699219
2054,51.5,63.5625,126.9375,0.2158203,0.2250977,0.8330078,0.1645508,-0.109375,-0.1699219
2056,54,66.5,125.9375,0.2119141,0.2329102,0.8330078,0.1645508,-0.109375,-0.1699219
2057,56.4375,69,125.25,0.2041016,0.2250977,0.8251953,0.1645508,-0.1147461,-0.1674805
2059,60.3125,71.625,125.0625,0.1962891,0.2211914,0.8291016,0.1630859,-0.1157227,-0.1645508
2060,62.1875,72.0625,125.5,0.1923828,0.2290039,0.7983398,0.1630859,-0.1157227,-0.1645508
2062,63.5,71.5,126.875,0.1962891,0.2290039,0.7827148,0.1630859,-0.1196289,-0.1630859
2065,64.125,69.875,129.375,0.2041016,0.2446289,0.7709961,0.1630859,-0.1206055,-0.1606445
2067,63.5625,67.5625,131.4375,0.2080078,0.2641602,0.7670898,0.1630859,-0.1206055,-0.1606445
2068,61.0625,64.9375,133.6875,0.2158203,0.2954102,0.7553711,0.1621094,-0.1245117,-0.1582031
2070,58.375,62.6875,135.8125,0.230957,0.3222656,0.7592773,0.1621094,-0.128418,-0.1567383
2071,53.8125,61.875,136.375,0.2504883,0.3730469,0.7475586,0.1621094,-0.128418,-0.1567383
2073,48.375,62.125,134.875,0.262207,0.3959961,0.7670898,0.159668,-0.1293945,-0.1552734
2074,46,62.0625,131.125,0.2583008,0.4233398,0.7631836,0.1582031,-0.1342773,-0.1538086
2076,45.375,62.625,126.3125,0.2583008,0.4350586,0.7709961,0.1582031,-0.1342773,-0.1538086
2077,46.3125,63.25,119.5,0.262207,0.4506836,0.7749023,0.1582031,-0.1381836,-0.152832
2079,47.4375,63.75,111.75,0.2504883,0.4584961,0.7788086,0.1582031,-0.140625,-0.1489258
2080,49.625,62.4375,106,0.230957,0.4311523,0.7788086,0.1582031,-0.140625,-0.1489258
2082,51.1875,61.125,101.8125,0.2348633,0.4272461,0.7788086,0.1582031,-0.1420898,-0.1489258
2083,51.625,59.5625,96.5,0.2270508,0.4350586,0.7827148,0.1557617,-0.1455078,-0.1445313
2085,51.5625,56.875,90.4375,0.2080078,0.4233398,0.7866211,0.1557617,-0.1455078,-0.1445313
2086,52.8125,53.4375,84.8125,0.1728516,0.4038086,0.7709961,0.1567383,-0.1484375,-0.1445313
2088,54.8125,49,79.6875,0.1572266,0.3920898,0.7670898,0.1542969,-0.1494141,-0.1435547
2089,56.5625,44,75.9375,0.1494141,0.3613281,0.7592773,0.1542969,-0.1494141,-0.1435547
2091,59.3125,39.125,73.5625,0.1376953,0.3339844,0.7866211,0.1557617,-0.1508789,-0.140625
2092,62,34.625,73.8125,0.1337891,0.3027344,0.8022461,0.1557617,-0.1542969,-0.140625
2094,64.625,30.875,75.6875,0.1298828,0.2836914,0.8251953,0.1557617,-0.1542969,-0.140625
2095,65.5625,27.9375,78.375,0.1298828,0.2719727,0.8564453,0.1557617,-0.1567383,-0.1381836
2097,67.875,25.625,81.5625,0.1416016,0.2602539,0.8798828,0.1557617,-0.1582031,-0.1357422
2098,69,23.5,85.75,0.1533203,0.2719727,0.8950195,0.1557617,-0.1582031,-0.1357422
2100,70.75,22.4375,89.3125,0.1689453,0.2719727,0.9262695,0.1518555,-0.159668,-0.1367188
2101,72.75,23.375,92.5,0.1923828,0.3027344,0.9458008,0.1533203,-0.1621094,-0.1357422
2103,74.9375,24.9375,94.75,0.1962891,0.3105469,0.9614258,0.1533203,-0.1621094,-0.1357422
2104,78.75,26.9375,96.5625,0.1845703,0.3222656,0.9648438,0.1518555,-0.1655273,-0.1303711
2106,80.375,29.1875,97.9375,0.1962891,0.3378906,0.949707,0.1533203,-0.1655273,-0.1289063
2107,80.9375,31.8125,99.4375,0.1806641,0.3417969,0.9379883,0.1533203,-0.1655273,-0.1289063
2109,80.6875,34.375,102.25,0.1650391,0.3378906,0.9223633,0.1518555,-0.1694336,-0.1264648
2110,79.5,36.625,106,0.1533203,0.3496094,0.9067383,0.1508789,-0.1733398,-0.1264648
2112,77.5625,37,111.5625,0.1455078,0.3535156,0.8798828,0.1508789,-0.1733398,-0.1264648
2113,73.25,36.25,115.8125,0.1259766,0.3847656,0.8525391,0.1469727,-0.1733398,-0.1220703
2115,70.9375,34.8125,118.875,0.1069336,0.3847656,0.8564453,0.1459961,-0.1782227,-0.1220703
2116,71.25,32.0625,122.5625,0.07177734,0.3691406,0.8486328,0.1459961,-0.1782227,-0.1220703
2118,71.4375,29.125,125.25,0.06005859,0.3769531,0.8447266,0.1469727,-0.1806641,-0.1181641
2119,75.6875,25.0625,129.0625,0.04443359,0.3496094,0.8447266,0.1445313,-0.1831055,-0.1171875
2121,79.5625,20.125,132.9375,0.06005859,0.3613281,0.8486328,0.1445313,-0.1831055,-0.1171875
2122,84.125,17.8125,136.9375,0.08740234,0.3574219,0.8642578,0.1420898,-0.1879883,-0.1142578
2124,86.3125,17.0625,140,0.1220703,0.3881836,0.8759766,0.1411133,-0.1894531,-0.1142578
2125,87.4375,18.6875,142.3125,0.1337891,0.3999023,0.8681641,0.1411133,-0.1894531,-0.1142578
2127,89.1875,21.1875,144.125,0.1416016,0.3847656,0.8486328,0.137207,-0.1918945,-0.112793
2128,89.875,25.8125,145.9375,0.1533203,0.3999023,0.8564453,0.137207,-0.1958008,-0.112793
2130,90.0625,29.8125,148.125,0.1494141,0.3999023,0.8330078,0.137207,-0.1958008,-0.112793
2131,88.375,36.1875,150.125,0.1533203,0.4077148,0.8251953,0.1347656,-0.1992188,-0.1049805
2133,88.0625,40.4375,151.3125,0.1298828,0.3881836,0.8100586,0.1333008,-0.2006836,-0.1035156
2134,88.625,43.5,153.375,0.1030273,0.3847656,0.7944336,0.1333008,-0.2006836,-0.1035156
2136,89.375,45.3125,155.5,0.07958984,0.3881836,0.7866211,0.1308594,-0.2070313,-0.1025391
2137,90,45.875,157.4375,0.05615234,0.3847656,0.7592773,0.128418,-0.2055664,-0.09716797
2139,91.125,46.125,158.5625,0.02880859,0.3769531,0.7514648,0.128418,-0.2055664,-0.09716797
2140,93.6875,45.5,160.0625,0.02490234,0.3691406,0.7592773,0.1259766,-0.2104492,-0.09570313
2142,97.8125,47.25,161.375,0.02490234,0.3959961,0.7553711,0.1235352,-0.2094727,-0.09179688
2143,96.3125,50.5,162.0625,0.05224609,0.4194336,0.7788086,0.1235352,-0.2094727,-0.09179688
2145,96,56.5625,163.875,0.07568359,0.4467773,0.7944336,0.1235352,-0.2133789,-0.08935547
2146,90.75,64.5625,163.5,0.1030273,0.4775391,0.7827148,0.1196289,-0.2167969,-0.08642578
2148,83.0625,72.3125,160.5,0.1298828,0.4931641,0.7592773,0.1196289,-0.2167969,-0.08642578
2149,77.0625,78.1875,159.125,0.1108398,0.4389648,0.7402344,0.1162109,-0.2192383,-0.08251953
2151,73.5625,84.9375,159.375,0.1030273,0.4116211,0.7246094,0.1162109,-0.2216797,-0.08105469
2152,72.875,84.625,161.4375,0.05615234,0.3881836,0.7128906,0.1162109,-0.2216797,-0.08105469
2154,69.8125,83.5625,162.9375,0.04052734,0.3920898,0.6777344,0.1123047,-0.2246094,-0.07861328
2155,58.3125,77.5,167.0625,0.04052734,0.3144531,0.5810547,0.1098633,-0.2270508,-0.07470703
2157,54.9375,72.8125,173.125,0.02490234,0.2915039,0.6118164,0.1098633,-0.2270508,-0.07470703
2158,50.5,65.4375,179.0625,0.001464844,0.2641602,0.5732422,0.1098633,-0.2270508,-0.07470703
2160,49.375,57.5,186.375,-0.005371094,0.2446289,0.5537109,0.1074219,-0.2294922,-0.07177734
2162,50.25,50.4375,193.25,-0.02880859,0.2524414,0.5615234,0.1074219,-0.2294922,-0.07177734
2164,53.0625,46.5625,199.3125,-0.005371094,0.2797852,0.5732422,0.1040039,-0.2319336,-0.06933594
2165,49.8125,39.375,207.1875,-0.02099609,0.2602539,0.5537109,0.1015625,-0.2329102,-0.06933594
2167,52.125,30.5,216.9375,-0.06005859,0.2563477,0.6118164,0.1015625,-0.2329102,-0.06933594
2168,57.6875,23.8125,224.25,-0.03271484,0.2954102,0.6547852,0.09619141,-0.2329102,-0.06542969
2170,60.125,17.75,231.125,-0.02099609,0.3300781,0.6894531,0.09521484,-0.2368164,-0.06396484
2171,57.25,13.375,238.6875,-0.01708984,0.3339844,0.7475586,0.09521484,-0.2368164,-0.06396484
